accel_x (m/s^2),accel_y (m/s^2),accel_z (m/s^2)
4.795935871565024447e-03,-3.821880772494489972e-03,-9.798625231629378263e+00
1.197953475673383360e-03,-4.730949509607004951e-03,-9.789031133460760259e+00
2.598839914463982651e-04,-2.079597167791995011e-03,-9.799915606529056689e+00
-7.398587105278867093e-03,8.433658527701788643e-03,-9.791303894497337623e+00
1.384811386586585124e-03,-1.177030684865876167e-03,-9.798446941903421248e+00
1.776317662358544228e-03,1.634925784659520265e-03,-9.793853849979502257e+00
-9.610955312373091822e-03,-3.681941280523490494e-03,-9.786629218043813694e+00
-1.756800643084242743e-03,-3.348394777575437829e-03,-9.796763148203499583e+00
9.609524630321658947e-03,5.253758865360229520e-03,-9.795900424470778134e+00
-9.973781362069349902e-04,1.055103855284826413e-02,-9.799281625321995648e+00
3.539822035920882565e-04,-2.822864702227687473e-03,-9.791170115570839272e+00
-5.157150596198329740e-04,-6.988686755314952974e-03,-9.792893439077429818e+00
7.830825425340879080e-04,-5.951281720803423131e-03,-9.797855935954075335e+00
-7.936029194799362231e-04,-6.803696386045043724e-03,-9.793554968138671768e+00
3.722123602668113689e-03,-3.756337940848146571e-03,-9.794460870151159071e+00
3.467525633600097683e-03,-2.155418399588224145e-03,-9.781468794069718697e+00
1.826825841761678176e-03,-2.198731650625426141e-03,-9.806167515152329983e+00
7.243469888067202885e-03,1.060593199973039512e-03,-9.802284323826608414e+00
4.999819181529760806e-03,1.391770976328489699e-03,-9.800264002843208644e+00
-9.618156660707480961e-05,8.893615919615851031e-03,-9.797801451004245266e+00
3.060073962982073816e-03,-9.739504125919475758e-03,-9.794739631746198327e+00
3.257976599292902297e-03,-6.039711293359095387e-03,-9.790455774100431441e+00
-7.045991917669244993e-03,1.449023252836397456e-03,-9.792630559993186878e+00
9.196895055247292922e-03,-1.062173646086068436e-02,-9.793953714203428973e+00
4.969103758582641469e-04,8.678493420304658063e-03,-9.787030234129090900e+00
7.582060114033084032e-04,7.142872000057151963e-03,-9.797855370845502065e+00
-3.025198428952434546e-03,-2.039980852060886522e-03,-9.783337811919809113e+00
8.638256545503548989e-03,-3.556795013491823726e-03,-9.786882658219333564e+00
-1.421749302834997633e-02,6.219926978816412875e-04,-9.797902172000371834e+00
-4.290828924915621092e-04,2.432591943185722239e-03,-9.791630305718401317e+00
8.335696698838426441e-03,1.516156761806798257e-03,-9.799034896935692629e+00
6.547626160531254923e-03,-2.983538311127635363e-03,-9.798175581311095783e+00
-3.651832246347037642e-03,-1.601353754423058117e-03,-9.789677098957561441e+00
2.652513053499861231e-03,-2.980506873094473409e-03,-9.797917676621919369e+00
-3.755168352128435919e-03,-4.255078497098665861e-04,-9.798170800826568438e+00
-4.838411061703998609e-03,-8.152456814184212003e-03,-9.795979308785256023e+00
3.091276058806406365e-03,-4.079803340519585521e-03,-9.799320207320354470e+00
4.031255215012516553e-03,2.560455655072153749e-03,-9.784580346748684931e+00
-5.729794035077950820e-03,-1.771872936296224653e-03,-9.793539775977988526e+00
5.322142753252043397e-03,-1.882958727618696637e-04,-9.789720202389078807e+00
-6.825707531257454129e-03,-1.369205424283768133e-03,-9.795785351015977582e+00
1.791152931905567970e-03,-6.498717349607691963e-03,-9.787577293458532779e+00
1.277266373243203046e-03,7.140493861701528201e-03,-9.800405499390659969e+00
9.035570817944706470e-03,-1.025686214853243085e-05,-9.802721949864807272e+00
-2.006717346926063274e-03,1.577420270521381939e-03,-9.791594586741288353e+00
1.418492269462596047e-03,2.928857702627549880e-03,-9.789812620575304436e+00
2.804851862026380097e-03,1.192935472986861702e-03,-9.791522121737116890e+00
9.140157238555927932e-03,-2.951210279108458252e-03,-9.793403606274125650e+00
7.325558918533748437e-03,-1.622345525403590290e-03,-9.797973149418035987e+00
1.917332408396213222e-03,-3.271195034669436338e-03,-9.797501334996715272e+00
-4.430311609696493957e-03,2.173798585984779153e-03,-9.795592034631624756e+00
6.183140455197560365e-03,5.458186167512657679e-03,-9.796491856276793087e+00
9.437052633180023631e-03,-3.675339099575973024e-03,-9.780079889971824869e+00
2.386107533275219281e-03,3.273075296704942887e-05,-9.786394483682345324e+00
-3.245890998820422178e-03,1.380490908918712706e-02,-9.800317987992558599e+00
2.261248691265207176e-04,8.875299165120644276e-03,-9.793685846988688937e+00
-1.159713951025348987e-02,-9.125364987232856620e-03,-9.790806521808335106e+00
-5.883407517104817519e-03,1.326696499197217672e-03,-9.797312631256231086e+00
2.717382868331264922e-03,3.856602505052852069e-04,-9.793852353654589393e+00
7.336972397411293742e-03,9.374738896053658871e-03,-9.796484401630051408e+00
-6.818170517810997339e-03,-7.544527375642599148e-03,-9.790900268575398968e+00
-1.152193448157720493e-03,-9.768390293923069102e-04,-9.794027557593329547e+00
-1.742452907195981985e-03,4.436548793567998000e-03,-9.802170211745528050e+00
-4.325240731240089474e-03,-8.848514608297600691e-04,-9.783888428283374239e+00
5.678095586285401494e-03,1.690904919817305674e-03,-9.793770398767211560e+00
3.061060288381021750e-03,7.340784311293146363e-04,-9.785715692540701838e+00
-3.516226913972861703e-03,7.807199611568961181e-03,-9.800447889274364499e+00
2.942649514841405491e-03,7.275701706006569482e-04,-9.794516182348290911e+00
-3.633200143378466276e-03,9.207981259113689337e-03,-9.795863338679957621e+00
8.587953721663058905e-04,7.284140898171845638e-03,-9.798100146324005166e+00
8.319110526996133584e-03,-1.272217305636255853e-03,-9.794343683309161719e+00
-5.353714507861014396e-03,1.930428371165106337e-03,-9.798579822077464030e+00
7.058569876636970261e-03,2.675342944173745956e-03,-9.796564826019510619e+00
-2.806122464887733214e-03,-6.023988618955742648e-03,-9.799758263742511133e+00
-6.839210959047204580e-03,1.030790435791930065e-03,-9.796073118582729222e+00
4.437761431837586334e-04,-5.115677068530011425e-03,-9.794493339454682257e+00
-2.572406248460455506e-03,2.381382905013026789e-03,-9.795366611999531514e+00
-5.252531741677382224e-04,-6.155470458285986542e-04,-9.789702866260922676e+00
-6.244580087351018355e-03,9.507575811715792552e-03,-9.785238005450034748e+00
4.909336760402419238e-03,-5.123749699759497234e-03,-9.789658293160954372e+00
-6.104896090597621266e-04,-9.203780969836036080e-03,-9.790220559616788165e+00
1.019291368987547408e-02,3.728431858922137665e-04,-9.795013433385737045e+00
-3.137805085284205500e-03,8.676825008645243364e-03,-9.804218553880026832e+00
5.088209852615799798e-03,-1.740367094556390538e-03,-9.789588021999344747e+00
-7.414055996320724831e-03,-4.074125932828069618e-03,-9.794892348701324636e+00
9.824095405974387490e-03,-6.405202915103704216e-03,-9.796905370551412418e+00
8.743263923058500545e-03,-3.274456379970211786e-03,-9.790842229954426656e+00
-7.256264803701827429e-03,3.867384072579938339e-03,-9.800893527236821612e+00
5.075805876011666058e-04,-4.091597686408361342e-03,-9.799454277497126498e+00
-2.969396787325429259e-03,9.832460566652613618e-04,-9.797449946546676003e+00
1.036765658909179428e-03,-3.948320292675911239e-03,-9.806938262299066622e+00
-2.442485286527515138e-03,8.356167036696797792e-03,-9.801003051093360341e+00
-9.351379376648908184e-03,3.230414056058279141e-03,-9.796943509486974122e+00
-6.557097397833636272e-03,-7.240187506559819623e-03,-9.788329910543382084e+00
-4.688866365452555238e-03,-4.733876677264237673e-04,-9.798418345307595700e+00
4.155780388773393230e-03,-5.490779166121181366e-03,-9.797770229543683485e+00
-6.714382106154731999e-04,-9.999920030042652968e-05,-9.808313448149315050e+00
1.148776859748103230e-03,2.258520971871348561e-03,-9.792828674063546401e+00
-1.731930413098280858e-03,-5.114930571972817316e-05,-9.794088279209940850e+00
-9.752963840995465886e-03,5.543546463914886594e-05,-9.793412131206300941e+00
5.873224376927239226e-03,3.056644218686436760e-04,-9.800842734964517078e+00
-8.411954810738407693e-05,2.322881906453955897e-03,-9.791973174795611357e+00
-3.704573843246130108e-03,-7.716333094274153287e-03,-9.803909798447097756e+00
-6.873551802403323786e-03,6.078127564314106737e-03,-9.794697545291143115e+00
2.872856458071589795e-03,-3.386580107425225111e-03,-9.790251553576299060e+00
-1.072346929412870513e-03,3.510597822606440713e-03,-9.798319272724860696e+00
-2.140341652307477596e-03,-4.236189487887767201e-04,-9.799342079530850569e+00
-1.521263043292179172e-02,1.789184729517133855e-03,-9.791800522322942513e+00
-4.017208825897591179e-03,-8.343289993497345416e-03,-9.794672155922974355e+00
-6.854961371192079371e-03,6.855014687050455142e-03,-9.794321995050626839e+00
5.008697135697753487e-04,1.205755665715012998e-02,-9.790797862619795566e+00
-2.025510768954132471e-04,4.750064375601863870e-03,-9.794578391426549402e+00
1.245175241685315048e-03,-2.998809548154827368e-03,-9.792388334436276764e+00
-2.698048491317296075e-03,-3.408123074251838934e-03,-9.795186414548581411e+00
-6.001705249316373510e-03,-2.406969078955542313e-03,-9.794162050515353712e+00
2.632201561937648569e-03,5.266950796659244927e-03,-9.792793409427128282e+00
9.782586662381248174e-03,4.426885872667957189e-03,-9.803470035529935345e+00
1.262484922478493464e-03,3.335888416889569268e-03,-9.796666119691099794e+00
-5.511127270076782522e-05,4.271591833664121172e-03,-9.796847788089790399e+00
-1.254143695177399034e-03,2.557751211989092114e-03,-9.795495774713081971e+00
1.006516887317856178e-03,1.208148740253589190e-02,-9.791206024378910300e+00
-1.740564664072631737e-03,1.897271225512612777e-03,-9.804701594296725276e+00
9.353817199799478342e-04,-1.359310194114288087e-03,-9.802366494634794591e+00
-5.879552496802482528e-03,9.529479294517981605e-03,-9.784550652088833900e+00
9.606154866995725641e-03,-5.137298147470655690e-03,-9.790401864786225872e+00
-5.176344689464359343e-04,3.603991757203948380e-03,-9.790960582140568746e+00
3.535093515158875305e-04,-2.628240375813510523e-03,-9.792800254634709489e+00
9.956786191989233127e-04,-1.984118070807693902e-03,-9.799016959158096896e+00
6.184746059456552175e-03,-2.181529892121935980e-03,-9.797296877420007988e+00
4.226449100496269470e-03,9.545455395539656149e-03,-9.790137217600898722e+00
6.204610210124056335e-03,-7.742647169292291194e-03,-9.795703990239600145e+00
5.982620648739421683e-03,9.005354919292839905e-03,-9.794116272601605999e+00
-1.065985358698177086e-02,-6.569677819034014550e-03,-9.789818714042999304e+00
-3.378688153389542738e-03,2.457897969922107160e-03,-9.791906893506245879e+00
-2.640413275743756696e-03,2.704129745960686445e-03,-9.786606932524435365e+00
-4.847953024847694546e-03,6.510857194236420453e-03,-9.798811830482232921e+00
4.116249856549656500e-03,-2.365483957609160193e-03,-9.792287589765432898e+00
-1.566284169401611481e-03,-1.014837812938788105e-03,-9.790237024255953102e+00
6.594210350592696022e-03,-1.482714883123206068e-03,-9.787974924226416462e+00
5.725791354669097950e-03,-1.922597621273220651e-03,-9.797010130805855255e+00
7.414413690737825134e-04,-2.421016662468006026e-03,-9.788553172774811628e+00
-1.837735601998474570e-03,-4.301920636091045164e-03,-9.801138087328885362e+00
7.513251759078252816e-03,5.604723979650451729e-03,-9.801014623199378661e+00
-9.523474649421470248e-03,-5.221653420075962442e-03,-9.800858485222276428e+00
-7.805414425308349405e-03,-3.800574168099243866e-03,-9.796007657959963311e+00
2.931455661488179248e-03,-1.587214114767995657e-03,-9.794963043443743800e+00
1.219791600275849444e-02,-4.413507759951500707e-03,-9.804877739182911611e+00
8.008403500474211428e-03,-1.076747659065227340e-02,-9.795310383942926080e+00
-4.475130764976083253e-03,5.759885898019813854e-04,-9.795647293772532294e+00
-9.989750030501474976e-03,7.624468283259464192e-03,-9.793014903358795209e+00
-3.640714810359752581e-03,3.646924915534140860e-03,-9.792230604538952221e+00
1.194897520160868518e-02,4.968243348310453621e-04,-9.794564188908505997e+00
-5.321961347932646288e-03,-8.566278124894314162e-04,-9.799292681340689981e+00
2.050240047777661216e-03,1.613020374605434511e-03,-9.800616927365441100e+00
-2.396773818920987491e-03,-7.735974480413766502e-05,-9.787982130691514016e+00
5.317832384180065132e-03,4.725993175852673082e-03,-9.789146183229922471e+00
3.106457459037857607e-03,4.187359514231946828e-03,-9.793099028603476697e+00
-5.406303289536264212e-03,-6.581574881583779693e-03,-9.791658559559479613e+00
-3.289834001175162559e-03,-1.666843624069748304e-05,-9.797275943486482674e+00
3.410417091732767872e-03,-1.462548989879714802e-03,-9.793463312660806608e+00
-1.204307947351449188e-03,2.205204877712384215e-03,-9.794439726251315648e+00
-6.629570926002617028e-03,-9.664715204423336486e-04,-9.789415297593421883e+00
-2.989662351360334626e-03,4.033802000120143873e-03,-9.779055922191508543e+00
-1.499912245874450737e-03,1.208566743905899014e-03,-9.788405320592795889e+00
4.106088746034288958e-03,-5.386990546498411983e-03,-9.797717303459304361e+00
6.815977031211523790e-03,-1.058633882987218382e-02,-9.791839197110849824e+00
-5.730178815347021477e-05,-2.098573588899299396e-03,-9.792489864456896953e+00
1.085831454454704329e-03,-1.769941636973986062e-03,-9.798550896867654458e+00
-3.770557622227946478e-05,-8.258164983829852784e-03,-9.798253354184465636e+00
6.529272303541876557e-03,-4.854716808344886059e-03,-9.798849512845782428e+00
-6.830214347420711374e-03,3.112944844230089783e-03,-9.791662007387005318e+00
-3.522657705830770352e-03,-2.090025539055540623e-04,-9.799639345083701159e+00
5.900703913863537126e-03,3.635158189009718996e-04,-9.791719296432178865e+00
3.192880318608732216e-03,-6.503157419505659238e-03,-9.798702153250122393e+00
-1.409067609124656922e-03,8.508078056845794646e-04,-9.796875376595281182e+00
8.909998602072632338e-04,-5.783552568648954277e-03,-9.795467796069567967e+00
-1.375537735837073375e-03,4.730580935273655252e-03,-9.792428881295101917e+00
7.895026184018756263e-03,3.967473788123600242e-03,-9.786194355160560576e+00
3.071113513366831999e-03,2.551907540468003211e-03,-9.791090252663124716e+00
-2.689071245134493776e-03,-5.711918676927122719e-03,-9.800925371953074006e+00
4.596163799409134706e-03,3.167412128797706099e-03,-9.804093740878590424e+00
-3.681046445467726826e-03,8.865065752760373501e-05,-9.798376360330626866e+00
2.658318810908448255e-04,1.571674244510558403e-03,-9.804335951155422890e+00
3.520945302576552940e-03,-1.557890334382835799e-03,-9.796783550217577741e+00
-9.822672600352409453e-03,1.653426064337088495e-04,-9.783828377688440270e+00
6.455334186205916210e-03,-3.455199322653083882e-03,-9.800690312803903126e+00
4.887080841499427675e-03,1.038854020436613505e-02,-9.799702894988786994e+00
-1.092708229294044389e-02,-3.336310677659316565e-03,-9.797304563940937072e+00
-8.526339239569269771e-03,-1.263587318148916977e-03,-9.797901547492136487e+00
2.885420388389443522e-04,7.551375419992390186e-04,-9.802323834390273660e+00
1.801851429938291062e-03,-3.273205673425108164e-03,-9.805615838608478185e+00
-2.394083676830419376e-03,2.616969163172948483e-03,-9.801289727417847431e+00
-1.872150693295769312e-06,-3.125093143681886496e-03,-9.793968285690821673e+00
-1.696173814120993965e-03,-3.373863076917382135e-03,-9.797246785240769640e+00
-7.001945424982764996e-03,-2.435267602644124781e-03,-9.794051492660642566e+00
-1.601599261315057637e-04,4.266164374815012601e-03,-9.805492561613080582e+00
-3.975896305466873615e-03,-1.484606212354991524e-03,-9.800187996513558986e+00
-1.282393610901971098e-03,-4.309051965757772738e-03,-9.793564833598317421e+00
3.132941575145277088e-03,-1.258953536541085154e-02,-9.793475511487663709e+00
-2.014902435654609882e-03,1.145963100639477497e-03,-9.794417933451246228e+00
5.866806896467161372e-03,2.554726383445706829e-03,-9.794829078435814296e+00
5.098045583360436586e-05,2.514955917699231418e-03,-9.797453255502896141e+00
-2.187126244800367218e-03,-4.743708850172292067e-03,-9.800419863429381095e+00
-4.782081438772384403e-03,3.558610848747817499e-03,-9.792628775149617937e+00
-1.047048910653705645e-02,-4.655381570726653540e-03,-9.793536219792347453e+00
3.336620137846882991e-03,7.129035823853939642e-03,-9.787344955319827733e+00
-1.805877102172120377e-03,1.664989551585360360e-04,-9.793743516954261707e+00
1.039938704853888597e-03,2.608974249535375017e-03,-9.797821684510976681e+00
2.586867328178258946e-03,1.388594131048138426e-03,-9.798398258337446265e+00
1.919758872563833612e-03,1.876640256169355859e-03,-9.806305069091429516e+00
1.828851050366909039e-03,-1.817196462092097965e-03,-9.798056538503058022e+00
6.139851969755539748e-03,-1.154427209282428814e-03,-9.791777269347484491e+00
-2.424720796709671760e-03,-2.722814021046030854e-03,-9.793820074746534488e+00
3.688107275093975741e-03,2.068100108664988699e-03,-9.799627546308785853e+00
-2.940294627473936939e-03,-2.868142721523056103e-04,-9.791727326086265393e+00
-4.740237867921554514e-03,-3.860709021192100521e-03,-9.790114310244117490e+00
3.798523139778452098e-03,3.022069307639315555e-03,-9.789547745218930785e+00
1.180152714840724875e-03,5.081813243678020599e-03,-9.806042948795901992e+00
-8.001549246157327972e-04,5.356989728530828481e-04,-9.800657106901104143e+00
4.953679701023385937e-03,-6.434683038476927443e-03,-9.799096549864916739e+00
-8.670935503615516751e-03,-1.479638606538444170e-03,-9.796636726681681395e+00
-4.487581499235954695e-03,-4.321597034907108392e-03,-9.793597455253706840e+00
6.724538584344483564e-04,1.083285530180332079e-02,-9.800092541415999392e+00
3.458703191626158555e-03,-8.907440739674962749e-03,-9.786213246497750262e+00
-7.437349667367119249e-03,-6.646900617279489316e-04,-9.791931761395503031e+00
-4.834558610120856699e-03,-8.323988375053581121e-03,-9.801998945365529181e+00
1.977960330099112502e-03,-3.629142538364076107e-03,-9.793764679776323590e+00
-1.378121345994286120e-03,2.551635623525810859e-03,-9.789606486105778771e+00
2.562793365651625140e-03,-4.730744794764272891e-03,-9.794760046512925200e+00
2.458122181372202064e-03,1.927816156394572371e-03,-9.795812682105749403e+00
1.773755824880260358e-03,6.183842011767905385e-04,-9.780164279411424744e+00
2.690225321056248942e-03,1.288677979385750025e-03,-9.798202816746153232e+00
-1.029181700905994028e-02,-8.654732876614699283e-03,-9.799922951227385326e+00
3.723443165660133072e-03,1.025924645340352964e-02,-9.797155917693391558e+00
-5.154888081136062977e-03,-1.722760596444482175e-03,-9.794494252924916822e+00
-1.301776000120757068e-04,5.038157006659082712e-03,-9.792167475188744419e+00
1.740656964033211480e-03,-1.555699308205850829e-03,-9.791985384783366442e+00
2.167567630103504547e-03,-8.836164374187747278e-03,-9.798727777781781612e+00
-4.929352445630009148e-03,-8.259340902614964756e-04,-9.796189930883802077e+00
-4.013750901421919703e-03,2.406155336239963055e-03,-9.790518499815799913e+00
2.450094912788080680e-03,2.822641631343597059e-03,-9.790560297851230942e+00
2.347150366017338070e-03,-6.914299067267829814e-03,-9.797753628966280104e+00
5.034802406270199454e-03,1.201682526168099899e-03,-9.796196329891767363e+00
-3.775448044942603283e-03,-6.489180926250503155e-03,-9.799664648850489712e+00
4.709773734985050683e-03,-1.788554277680994876e-03,-9.794119798480755534e+00
3.291710436116489918e-03,1.022144100234588428e-03,-9.790223454166056882e+00
3.520483340484783629e-03,2.118974781614472828e-03,-9.794344491988896451e+00
-1.376422262580784435e-02,-7.098311575866364520e-03,-9.783268780314264390e+00
7.762070062209669961e-03,8.925986114360141485e-03,-9.786534909151452410e+00
-7.389189764083726845e-03,-5.220113938191031124e-03,-9.797283941971913990e+00
-7.133653904549743484e-03,-2.620229440839127316e-03,-9.797570219875741060e+00
3.563421601145249241e-03,1.298211580428918540e-03,-9.790718784290717736e+00
2.268133277215496086e-03,-2.417099013801284578e-03,-9.797489265779399048e+00
-6.319580078069236828e-03,6.423273771132717537e-04,-9.802094656825323327e+00
-6.211462381317123770e-03,-7.488537823162027228e-03,-9.791963742813010185e+00
-3.597470400693373194e-03,-1.371822904835894030e-02,-9.801806398559959277e+00
5.099173703572623586e-04,6.155443164773767573e-03,-9.784640420802988459e+00
-5.706198279275667695e-03,5.120913723726677920e-03,-9.792273847865239134e+00
3.356822641476108968e-03,-3.341627729265948202e-03,-9.796434428195560429e+00
2.031377410847524847e-03,-5.358413903336760667e-03,-9.806382503746242207e+00
-4.314814058595047366e-03,-2.966689667195932401e-03,-9.791746230037126963e+00
8.018062255141905278e-03,5.739359861154039871e-04,-9.803166342338357708e+00
8.036517077990416175e-03,9.946031585112013670e-03,-9.790344120647359816e+00
7.096749910671096544e-04,2.965058614015413617e-03,-9.799024721510615876e+00
-4.270555595626081974e-03,-7.620348962088915792e-04,-9.807886811105236191e+00
4.813425848561538392e-03,1.362923381770162834e-03,-9.793889382701911117e+00
-1.984480307181223872e-03,4.583237782888931189e-03,-9.797857860819092934e+00
1.819683217006057546e-03,-1.865743711821967257e-03,-9.794758961687346499e+00
2.569960165145338416e-03,-2.635865915371972054e-03,-9.794682620329856704e+00
-3.298882856648774863e-03,-1.713939306899920452e-03,-9.794524900498521092e+00
-5.911620088861027286e-03,8.437233551978970056e-03,-9.793546797296707851e+00
2.617647057711827577e-04,2.717193253251844100e-03,-9.791385418097025450e+00
-2.042579629660387728e-03,5.956392002491704349e-03,-9.800866572668590848e+00
5.630675836449201485e-03,3.192382995526634772e-03,-9.809917112997361244e+00
2.771037398982252684e-03,-5.830343775880901178e-03,-9.800313855375181404e+00
2.378454080427697820e-03,-1.274092782160157061e-03,-9.795225585052458328e+00
-1.389181703838622333e-03,2.831783280802920456e-03,-9.797905600485419697e+00
-1.149811700921507529e-02,-2.569116207850878197e-03,-9.799315976593540256e+00
-1.310782809300446239e-03,2.148868740621227066e-03,-9.793700706142185908e+00
9.196055296976658397e-03,-1.463376664487835805e-03,-9.799369070741667187e+00
2.503097957167607461e-03,3.925472325047275717e-03,-9.798770947009344923e+00
-2.865802029579756806e-03,-7.057231701932386095e-03,-9.791500946235604630e+00
2.006136420969922493e-03,-7.597047089557937456e-03,-9.793420187812516886e+00
-5.435955270637623550e-03,7.086823599276067913e-03,-9.797293055880821555e+00
-2.379463488640803231e-03,-4.443709224157322592e-03,-9.802114290282544218e+00
1.245250465618140661e-03,4.155911963427644934e-03,-9.792944129802807041e+00
-8.806964132390760272e-03,-3.179467513355999260e-03,-9.805489995135962644e+00
-5.756577921488157182e-03,-2.072660386740972187e-03,-9.793480423388317035e+00
-8.010996777867476423e-03,-4.728154907320822678e-03,-9.791409617776547947e+00
-2.290561387315939289e-03,-1.128038909426199105e-03,-9.787554791981792235e+00
-2.135400778443310651e-03,-1.147730379866701480e-03,-9.794924013333028867e+00
-1.074592096995188699e-02,1.453803686118304572e-03,-9.797888552988599287e+00
-4.464845266414479291e-03,-7.250017924444106428e-03,-9.791557715052769950e+00
8.735940650594334680e-03,-3.200327162778505508e-04,-9.791087369507938121e+00
-2.787942479434747829e-03,2.017530016231175926e-04,-9.785252661525886353e+00
6.706793270948207403e-03,5.241755958256100190e-03,-9.790984487155796501e+00
2.786630384212224545e-03,1.177796485192316063e-03,-9.789449963115846032e+00
9.038902322368495639e-05,5.647285897067324222e-03,-9.796145598850340974e+00
6.833273399470098444e-03,-5.188943900316279542e-03,-9.786020406250887760e+00
-2.674533705099702355e-03,9.780076938702236128e-03,-9.795518068194692063e+00
9.579158394845873822e-03,-2.879653012538814852e-03,-9.804957572247538167e+00
2.831763926901923432e-03,-1.691526783758429305e-03,-9.790502698966063733e+00
6.140930063091226861e-03,1.075596929377892717e-02,-9.795735803756217663e+00
-8.331277452207707475e-04,-5.140898267234179746e-03,-9.788428648039880997e+00
-2.699656611977711927e-03,-6.472680921323124316e-03,-9.790115320641705310e+00
-1.104348721380723521e-02,1.035991957326868641e-02,-9.804482296316095358e+00
3.423145286508746249e-03,-2.730035029782054441e-03,-9.796028166610257770e+00
5.922367796193302690e-03,-1.165923412461662614e-03,-9.797060529947177798e+00
3.607875167643202459e-04,3.778894831237569318e-03,-9.800234420551330317e+00
-6.810636019468851131e-03,4.804627806776663387e-03,-9.794098001263204623e+00
1.595183795106010997e-03,3.283760122381755488e-03,-9.794499743319338592e+00
-4.590676989273552097e-03,-1.039491924925750165e-03,-9.790778526896909639e+00
2.009658043127794409e-03,-5.885239161753094000e-03,-9.791695653899690654e+00
3.990053107271981686e-04,-8.705645885850736218e-03,-9.795373441263734549e+00
1.021474223920405128e-02,1.392741002506512000e-03,-9.798829068846238499e+00
5.926411346908611998e-04,-3.125662025829712906e-03,-9.799947956843299224e+00
-3.137180044650416007e-03,-4.087909210669177229e-03,-9.793393762267497138e+00
-1.010022850489987207e-03,-1.490650835680313842e-03,-9.792883885659136922e+00
5.110821059248378539e-04,7.101946007319479481e-04,-9.805211062034333125e+00
2.524468612113349138e-04,1.256445122955119091e-03,-9.795541178005603200e+00
-2.456381057596791588e-03,3.103511389009105947e-03,-9.798514128856748329e+00
1.509989414067922954e-03,-3.521588200626269913e-03,-9.798660238663584821e+00
1.867222107968438639e-03,-3.827813865268561017e-04,-9.799584245092534118e+00
2.022256493992107256e-03,9.290779038508570342e-03,-9.796448646715999686e+00
-1.978098435742690377e-03,5.969391432445324448e-03,-9.788707056672640405e+00
-6.391810424948099652e-03,-3.555955772031790894e-03,-9.796580079525908147e+00
-1.984957358594793050e-03,2.176643368492826771e-03,-9.790400328359236681e+00
-2.378971243376327462e-03,3.705319624318281855e-03,-9.798778068795760632e+00
2.786482109158519311e-03,-1.525540921713134561e-03,-9.794407941886094093e+00
-3.064274858695877068e-03,6.462337576898921285e-03,-9.802659132477156589e+00
-2.027579141904151463e-03,-3.828387229192963589e-03,-9.799931148877730536e+00
-2.462854802137460185e-03,-6.802058768417534179e-03,-9.795047499207186092e+00
-5.682312762524992060e-03,1.046331549633518557e-02,-9.794390435667306605e+00
1.808926020939266360e-03,-1.029991977912543544e-03,-9.803865128127467798e+00
7.832057888833047002e-03,8.528505684047721705e-03,-9.801245255963012326e+00
2.690563341207086439e-03,4.957424225207693845e-03,-9.794640177534429171e+00
-1.066410852574602858e-02,-3.241890137169137903e-03,-9.803207479158658089e+00
-4.831316867291873839e-04,2.752626665660737673e-03,-9.794038143319934164e+00
3.626079516992516006e-03,4.896848557870139493e-03,-9.789750434402398227e+00
2.112045584652558032e-03,1.562715850585760574e-03,-9.797445939681056259e+00
-3.409902014849901936e-03,5.856837659791153290e-03,-9.788727117625679597e+00
5.700742306110694697e-04,-6.666540419581117559e-03,-9.793720488144389336e+00
-8.289743958773639065e-03,-4.611754216114946278e-03,-9.792716628309399596e+00
1.106490425886486138e-03,3.249072553531297605e-03,-9.792971892819558377e+00
-4.980823065623856717e-03,-6.645120380600166854e-03,-9.788450051348860370e+00
-2.535865242718325467e-03,-1.674766550679232524e-03,-9.799319518749065594e+00
-3.259853181851771545e-03,-7.685117680869255063e-03,-9.802393058190189024e+00
-9.473278206729962266e-04,-9.266285810539801916e-04,-9.788648047439540534e+00
9.488278758045361888e-03,8.569444123682396636e-03,-9.789815294849390170e+00
-1.168709959911991888e-03,2.515009076204285628e-04,-9.803785183910076029e+00
6.659000503419974099e-03,2.507823090536350288e-03,-9.793512285382375282e+00
1.332273269828890706e-03,-8.277532500008570127e-04,-9.796110359862810313e+00
3.302593406375723046e-04,-1.695596951327888596e-03,-9.790908932884947902e+00
7.998710263781926011e-03,6.271434174763786985e-03,-9.800888921676323307e+00
-4.183340603116299759e-03,6.770780437100177131e-04,-9.798194492307995773e+00
-4.143162571754335430e-03,3.367614931551106980e-04,-9.786698693159454621e+00
4.288444987994781236e-04,3.635749868259086776e-03,-9.785423937994440990e+00
1.811993419702758465e-03,-2.519434091517100838e-03,-9.796735998933645106e+00
7.923788390465652184e-03,-1.020789383553924630e-02,-9.792445352206678777e+00
-9.403016072221645266e-04,-6.368312038698483758e-03,-9.798849151077693165e+00
-3.124688312475037630e-03,4.469590437187227240e-03,-9.779574496404732642e+00
-1.663978525368838696e-03,6.188670136556210198e-03,-9.794472147761178249e+00
-1.217931492001194781e-03,2.732241197382188555e-03,-9.789762318479425574e+00
-1.400876565946596345e-03,9.353699402715132116e-03,-9.792175567585699625e+00
-2.866815726602573236e-03,5.693433323051347306e-03,-9.789760351884224221e+00
4.224733198602187260e-03,-1.321746595374000046e-03,-9.783472195932299442e+00
4.760819023883309728e-03,3.959528171986149633e-03,-9.789997598408938018e+00
-7.269633941822208935e-03,-6.945366349164985680e-03,-9.798616146838009300e+00
-1.021331178095280685e-02,-2.084262794369847599e-03,-9.796208724413729030e+00
-2.559531950063307845e-03,-6.411096003240545661e-03,-9.784786893568522714e+00
9.072252390450894974e-03,-7.140684022470317714e-03,-9.795897350175719609e+00
5.697685645552765833e-03,8.967298536243057620e-04,-9.796638240712528756e+00
1.824120181185590224e-03,3.493750223592626295e-04,-9.790068667092887367e+00
-2.016123528412273012e-03,-5.840078499727146231e-03,-9.791301711415348663e+00
4.672250089208052591e-03,2.843008321923310225e-03,-9.795392981336242144e+00
-2.866843515294841948e-03,-4.357532923701471113e-03,-9.794129970443604449e+00
2.418213687194962179e-03,-1.583155036542966939e-03,-9.796835667512262091e+00
7.998994063164011070e-03,-4.270830453951023238e-03,-9.796498854410103263e+00
-1.820079739897176568e-03,-4.343255967593548546e-03,-9.804622007446990750e+00
-6.386211434566592925e-03,-8.107566648835638290e-04,-9.792832567033336488e+00
-7.067749405155235656e-03,-3.257908036996610100e-03,-9.792980279067249327e+00
7.847279658100298622e-03,-2.266075310809290838e-03,-9.786104022264289881e+00
-1.980787312889657238e-03,-2.144017549191343079e-04,-9.791880258545425875e+00
-1.885249459373121222e-03,7.944874248629212043e-03,-9.797703996238761093e+00
-1.147382875318873723e-02,1.739036924432437511e-03,-9.789699232504467830e+00
-3.658822230494966805e-03,-3.930028627886169613e-03,-9.797524713933130514e+00
-4.385412762859110074e-03,-4.175477270750598512e-03,-9.801182838130173991e+00
7.831068046338516414e-03,-4.309401468966916546e-03,-9.797984739666746989e+00
-1.177819491624251379e-03,1.730130164046152176e-03,-9.793841577840197488e+00
-2.789080936890585716e-03,7.797137866377213018e-03,-9.794581923256789224e+00
-3.153492836814863857e-03,6.970766699027344457e-03,-9.799242742514060467e+00
1.081491820579864004e-02,8.226001161817347862e-03,-9.797045897254616165e+00
-2.614436831562732665e-03,-4.335548891788945257e-04,-9.788576136508167380e+00
6.000178997217243786e-03,8.203702899710877197e-03,-9.792318729691544377e+00
6.560509251835984317e-03,-7.834186298860524797e-03,-9.792507226216436322e+00
9.074165054650423431e-03,-1.270680952522389412e-04,-9.790537235442451802e+00
6.698523287804792649e-03,3.827724933789028536e-03,-9.799783150937896536e+00
5.123165912775426260e-03,3.081500510351501548e-04,-9.798393267010641949e+00
5.612302625111528949e-03,-2.083318436683097470e-03,-9.789792538450500459e+00
2.052101767865222547e-03,4.745441527080017228e-05,-9.803711416348233953e+00
2.615131856990053280e-03,-5.205772614958270074e-03,-9.789583728227555071e+00
6.737366344313397079e-03,7.584818051439170747e-03,-9.795249385862659253e+00
5.762639291245894762e-04,3.546010459820064884e-03,-9.798206053693748530e+00
2.911416825442426654e-04,4.679679130436648445e-05,-9.791536459709112350e+00
3.602022453387614207e-03,2.995133526295761829e-03,-9.790907509007048759e+00
-1.635409329514379969e-03,-1.146822469642525509e-02,-9.799135109829938628e+00
3.554237745983715360e-03,6.140269382161099056e-03,-9.796630690842095035e+00
5.029130144556939047e-03,1.012124196079037652e-03,-9.802073661907527935e+00
4.686731603771410008e-04,1.958616727199672270e-03,-9.789282984553574707e+00
5.650479217050023055e-04,-2.388395869532040743e-03,-9.798374268104648621e+00
-2.128632795038122236e-03,-1.047601983807427105e-02,-9.788398204855530693e+00
2.796432597786869655e-03,6.958597877736044830e-03,-9.787329399617748393e+00
-4.928764617267827539e-03,3.086208859577527219e-03,-9.794839994783343329e+00
8.675506070420985270e-05,6.430039640329336670e-03,-9.791686307203637085e+00
7.096984943694306484e-03,2.550831154265304022e-03,-9.796461887783372902e+00
-7.888265509490633917e-03,-5.866630773329772029e-03,-9.786628632010193840e+00
3.222928120759808741e-03,-1.000126096425863631e-04,-9.792683912248463685e+00
-9.823247118269826886e-04,-7.359853435642197197e-03,-9.795337821086155472e+00
4.099058082567389599e-03,-4.684653962599229270e-04,-9.791425549558827157e+00
-4.997894371726936680e-03,4.500976338623030940e-03,-9.785335550114089287e+00
7.776325139132580187e-03,4.306834101803858582e-03,-9.789694629189954256e+00
-1.947057141633268349e-03,-2.876276564481105181e-03,-9.798072998085048724e+00
4.108238324646187704e-03,-7.405399177586886178e-03,-9.798511498594987046e+00
-1.832928973631524090e-03,1.166182135773279971e-03,-9.788431523290102021e+00
6.267039617350991798e-03,-5.587175841208921745e-03,-9.793171840791114136e+00
-9.960689567278226131e-03,2.708148561891284651e-04,-9.800294030717797256e+00
-4.476962267036459046e-03,5.592170967826649158e-03,-9.799653004054258432e+00
-2.756809968132864497e-03,-1.306366246926378156e-04,-9.792243269144119466e+00
3.085387878887757801e-04,4.471971001097683508e-03,-9.794612024135291861e+00
5.047175282108984275e-04,3.390137517214487049e-03,-9.794197815847471844e+00
-7.708529046565051716e-03,1.083836416346240763e-04,-9.802626800329424128e+00
-8.145606277516870926e-04,7.774904796712117519e-04,-9.795133755823373534e+00
4.285576668631202089e-04,-3.873634794419505804e-03,-9.789090026601337868e+00
-2.611408715692705145e-03,-5.021724864426063695e-03,-9.786539394246634771e+00
7.063473206215501073e-03,2.117233253506130199e-04,-9.792126886122039409e+00
-5.163325026335300987e-03,8.676994905562647811e-03,-9.797902570700658842e+00
6.604359979590228129e-03,3.798416711011900928e-04,-9.799816962506186613e+00
-5.745003503810047762e-03,8.077560797246429586e-03,-9.803989176535852224e+00
-2.459433594712733939e-03,-8.269161370567429034e-05,-9.785957103607797691e+00
2.267097058152707078e-03,-6.101210909953113867e-03,-9.793001081102200800e+00
-5.404929336005866516e-03,2.064979527380962892e-03,-9.793847982535625718e+00
2.910931224313113505e-03,-8.415859472909572106e-04,-9.795406092135838350e+00
-3.224066067519943887e-03,8.941611106207810258e-03,-9.792961313244308741e+00
1.674078270655161979e-03,-2.198729091720748904e-04,-9.785548136082187654e+00
1.023066180674229693e-03,-2.529888621523747935e-03,-9.793163296484529212e+00
-3.582515594732674225e-03,-1.223500549676429568e-03,-9.797980953918921543e+00
1.514279260459260382e-03,1.716224644329589384e-03,-9.791642536549272080e+00
-3.664173764029768007e-03,9.214397052920941756e-04,-9.788489500468150695e+00
-1.773266905009843663e-03,2.597705167910481158e-03,-9.803175608671939045e+00
4.138409068230184534e-03,3.991740965689924425e-03,-9.803901753066302405e+00
1.960203052745365139e-03,-3.017282220523314924e-03,-9.793475414613302732e+00
-8.590167906821336019e-03,2.173386580002267809e-03,-9.784965755267831966e+00
-2.816420212696952533e-03,-7.315996221469685430e-03,-9.783042021816960698e+00
2.526206980183205459e-03,4.645097293943794160e-04,-9.794710592982594832e+00
-8.665854373467745189e-03,-2.189382765803515407e-04,-9.798264215995706294e+00
-7.199414625159889468e-03,-3.909305897016667614e-03,-9.796289310350923429e+00
6.246072747936881348e-04,2.812224659908781153e-03,-9.796317534909690039e+00
-4.124549634120512100e-03,3.510303484452604109e-03,-9.795450570855608774e+00
4.338033101248735778e-03,6.149826065110627557e-03,-9.797610198071133425e+00
2.017784917475038981e-03,5.670883467531417053e-03,-9.799927222156181728e+00
6.234903190217679254e-03,-5.324644557125073410e-03,-9.798542829127940834e+00
-8.266751893472372393e-04,-4.092277751665127777e-03,-9.796550084722332130e+00
2.274367738393144600e-03,-7.307216406425902540e-03,-9.795498572820678262e+00
-2.986221761368490230e-03,4.162741554131355569e-03,-9.788510046242778984e+00
-5.435584150208704014e-04,3.103461738113008715e-03,-9.799957409789483265e+00
6.115903239179327176e-03,4.194481793315537840e-04,-9.788723241938404485e+00
4.134692123976602129e-03,-5.508485018486762932e-03,-9.794788507366055441e+00
-4.435146356387307739e-03,6.246666992233502937e-04,-9.789317626833387465e+00
-9.905536927667513494e-03,-1.084741634607010174e-02,-9.790753351833563656e+00
-5.335965809786269096e-03,3.570147299885527079e-03,-9.795023818937442783e+00
-1.049650246042792105e-02,-4.239213323250630612e-03,-9.794568736688951560e+00
7.493662231472545884e-03,-2.347894707800017924e-03,-9.794996683175167362e+00
2.423221453251714081e-03,4.183942798538300436e-04,-9.789986874641320114e+00
-9.500464994974958458e-03,-2.479493413315506101e-03,-9.798900104143172030e+00
9.026854959202938386e-03,4.142339727573385311e-03,-9.798233262476093941e+00
1.001334012932074673e-03,-1.348865063998352281e-03,-9.792069418478076770e+00
2.269378783729024233e-03,-6.037904394375600073e-03,-9.793787581350155591e+00
-5.977108531195741113e-04,-2.722518230724444484e-03,-9.798375204460532117e+00
-2.106896278806482271e-03,2.915875383172285198e-03,-9.795532874612577601e+00
-6.178004763429128902e-03,3.023528146500858906e-03,-9.795770211546090067e+00
6.851158587546034816e-04,8.333526546328787069e-04,-9.787384268666910359e+00
5.139306771395920834e-03,3.769207791577340247e-03,-9.790243072610342878e+00
-2.928690318363137354e-03,5.810441332349904064e-03,-9.799794851552269037e+00
2.099027128271936746e-03,-6.876348717812933234e-03,-9.796939550177420131e+00
3.440582933897276541e-03,3.333664657696077359e-03,-9.792303492785864094e+00
7.102559884723650720e-04,5.442864574822828608e-03,-9.789969068588412426e+00
3.484829380082556192e-03,4.371170801350050730e-04,-9.800940650943431365e+00
-4.766757909027784408e-03,-3.327466328350735443e-04,-9.806546776892771433e+00
2.268471576108275871e-03,-1.998879416560821274e-03,-9.793599841539805340e+00
3.652643931256498253e-03,4.835076145960466587e-03,-9.798442619170241841e+00
-2.819815840280398035e-03,7.276869164904741817e-04,-9.793820078557867959e+00
-1.503687458373332262e-04,-3.958843074373507437e-03,-9.804549607805316924e+00
6.290298287864176663e-03,6.570703824190851638e-03,-9.786283881664061823e+00
9.036200434577789861e-03,-1.447798316709638690e-03,-9.792319654817994490e+00
-1.433439981164925242e-03,5.842429330955618491e-03,-9.795831611113534620e+00
2.353278599052091233e-03,3.696965703752757865e-03,-9.798893994382813943e+00
2.312468082701061960e-03,-4.443058632794584691e-03,-9.791540222591983422e+00
-4.752347263576953314e-03,1.310512591209466533e-04,-9.797073660739904710e+00
1.050062747428760638e-03,-3.083597645394760625e-03,-9.795893696754461644e+00
1.344963919874939476e-03,4.067795124250330428e-03,-9.797877128719907347e+00
-1.693303210085269446e-03,6.456093638576423065e-03,-9.797223694445579056e+00
-1.768403029770226637e-03,-2.291117382370911476e-03,-9.803442550759603691e+00
2.706056106482630634e-04,2.016160863324245340e-03,-9.785308200848577442e+00
-1.583932680795802073e-02,-4.851293207506267931e-04,-9.792768894255216239e+00
1.229973208673880783e-03,8.298477009358937520e-03,-9.791463277285663125e+00
-5.738176919354159855e-04,4.236166776526237819e-03,-9.794923532737282557e+00
-3.464289126901947020e-03,3.222429765892253009e-03,-9.796880873217668650e+00
-1.700694967103912785e-03,7.271113502088246035e-03,-9.794176690639517346e+00
-3.156128196792392510e-03,-5.584534920389679774e-03,-9.793241137586889522e+00
-4.093622851774786874e-03,-3.788407575231383939e-03,-9.798636875720708517e+00
-2.094625249561662267e-03,7.414465020100860504e-03,-9.806167342989338565e+00
-3.149955467601424450e-03,-3.433520461040439134e-03,-9.795873840076779970e+00
-8.797092523518788712e-04,-1.242416071250422973e-03,-9.792010406610883066e+00
-3.444096080739971356e-03,2.324792879238488878e-03,-9.787763933493403457e+00
7.328342027521430289e-03,5.178498114216847914e-03,-9.799382682578331227e+00
-1.155671307901259869e-03,3.386329620659572336e-03,-9.801823247979823961e+00
-4.873987328533908175e-03,4.582470392160422137e-03,-9.791622334624099366e+00
2.173374021966364110e-03,5.235269101708195057e-05,-9.797698583340796574e+00
-2.967475370273384237e-03,2.440415678980329892e-03,-9.793751012063587780e+00
-1.000115214337151314e-03,9.896954643436705733e-04,-9.793780919067357260e+00
7.492486914833460313e-03,-1.203079273647008826e-02,-9.807426939007543254e+00
-5.009921249655821703e-03,-8.430224855202044648e-03,-9.785464425168008518e+00
2.931227242082157930e-04,4.318132905224279783e-03,-9.795888531495094753e+00
1.022475405106662745e-02,5.381378592372678717e-03,-9.792757051044373995e+00
1.246169694430530016e-02,2.899442717850874568e-03,-9.790962875031205215e+00
6.675725756653930025e-03,9.319583366913522992e-04,-9.798788916611783861e+00
-7.729977779214763749e-03,1.897963128741640953e-03,-9.793670902293033720e+00
-7.560487849143925597e-03,2.771139285524668299e-03,-9.803680241336758527e+00
8.420383908697927702e-03,1.627723788306360267e-03,-9.790687427521488573e+00
-3.246598402250051689e-03,1.673840811415225815e-03,-9.788675380008935889e+00
2.164013519196962554e-03,-6.620116871943852732e-03,-9.794454263685590689e+00
1.784509236856380524e-03,-4.735541139866378257e-03,-9.790511917570663414e+00
-4.753948518673210312e-03,-1.487601767844893641e-03,-9.792782779577787977e+00
-1.333036140950515699e-03,3.099998503505373756e-03,-9.791635286742216948e+00
7.036103054616889231e-05,-4.462168873516497714e-03,-9.796308971843931346e+00
-5.486428835419289961e-03,-7.628082766531989363e-03,-9.791755397501216152e+00
5.867247663262342532e-03,-8.191327079104105194e-03,-9.792942405854226706e+00
-7.221675536550768758e-04,-3.902986712043901487e-03,-9.792524116287033564e+00
1.592506817077061002e-03,5.201298080732848390e-03,-9.790214563011625515e+00
3.270942755183230393e-03,8.261151690390322599e-03,-9.800648991054305981e+00
6.317803036621913275e-03,-1.010605406634103049e-03,-9.787345002186446763e+00
2.205427069780226557e-03,4.284178891577402649e-03,-9.798478394331715080e+00
-3.713981117989958395e-03,-2.436852740399577679e-04,-9.789114169004509591e+00
-1.178883636478069569e-02,-8.386363903583876969e-03,-9.798883386875392176e+00
1.320214810532465560e-02,-5.774014708694239634e-03,-9.784005087947413415e+00
-1.148324967861482629e-03,1.164992321043910968e-03,-9.792656723786137718e+00
-6.850073625932975516e-03,-5.773991756380235374e-03,-9.791602266299236135e+00
-8.675572066985239600e-06,4.445796260575654926e-03,-9.783249917179514199e+00
8.847088315994106446e-05,-3.518400219429395747e-03,-9.790714375021597249e+00
4.632343684810732998e-03,-1.308558470747639901e-03,-9.798543466972496674e+00
-1.954023683283433784e-03,-7.361208424410075821e-03,-9.788978205869797833e+00
-4.541468752941923981e-03,-1.201989239270453806e-03,-9.798545046825406502e+00
-3.312618240872252946e-03,4.410646902104329334e-04,-9.799164160214862918e+00
-1.644459847639968874e-03,2.567208064308313959e-04,-9.793397213236882948e+00
4.344452476937286922e-04,-1.610956034837091955e-03,-9.791625907356129588e+00
5.977860541921843976e-03,-6.679641802905723728e-03,-9.802205331064195448e+00
-9.270888354994731226e-03,-1.372592525995562597e-03,-9.798088614903594618e+00
-2.014780837854752028e-03,-4.683024384516240070e-03,-9.799155493057144284e+00
-2.204624649589685507e-03,-3.525729152067322725e-03,-9.795876744710799500e+00
-1.426223635934825013e-02,-2.365346744238322821e-03,-9.796951624874585818e+00
-4.540403299227223984e-04,-9.612740278144467354e-03,-9.788026715109163334e+00
-6.526629785158773872e-03,7.962546681211360791e-03,-9.804717155227713477e+00
1.026677338638076059e-02,-4.458432161183072118e-03,-9.801890874596962178e+00
-8.715665199620914461e-04,-7.145639659821110580e-03,-9.805641122105390295e+00
-6.491929403890122317e-03,6.852157751197141163e-03,-9.795485898164063343e+00
4.348740570669138057e-03,4.060647850870938939e-04,-9.788119863621819405e+00
3.479416870805178332e-03,-3.954285081479070110e-03,-9.797757986611305370e+00
1.320105860264336566e-03,-1.188996393193651573e-03,-9.792031464437521038e+00
-2.081515961038918512e-03,1.400524917309530957e-04,-9.797650764887416486e+00
7.370007300528315809e-04,-4.482109191906664784e-03,-9.799234253266357442e+00
-2.171614149594311861e-03,-4.303851210139959284e-03,-9.791069051014751778e+00
9.933610078943869506e-03,-8.413525702538462991e-03,-9.800570915921445803e+00
4.230594550965863059e-03,5.428059710789263220e-03,-9.791130401067890787e+00
1.230314944298610590e-03,3.786006544843766204e-03,-9.789311674936726604e+00
-7.082502626202012187e-03,-4.392522455815266007e-03,-9.795828415317558324e+00
-1.860886706719858162e-03,-7.770029215590074784e-03,-9.796782210912555300e+00
2.335253748651307422e-03,-8.152794092126184819e-03,-9.796723305100881518e+00
3.510019255866269651e-03,-5.494947097927877638e-03,-9.796838992927215273e+00
7.973420194636505641e-04,2.345339496264369113e-03,-9.793822470209427422e+00
3.396788352524770203e-03,-1.169944853895841423e-03,-9.788114401307703716e+00
3.514321976206972835e-03,-1.955945548373866881e-03,-9.797376902906941964e+00
5.465993639397394126e-03,4.537562299864138053e-03,-9.794295303123446317e+00
1.383180222855221820e-03,-2.489382686957498751e-03,-9.789771820348962095e+00
7.823651265397087162e-03,-2.193453018288720521e-03,-9.795468223127688390e+00
-1.793475418861559039e-04,6.623850323783360070e-03,-9.790657515847286163e+00
7.429139557606947129e-03,7.906986592710543368e-03,-9.792744344073298635e+00
-9.538188172923742561e-03,8.422793189967411193e-03,-9.789414296041600849e+00
-7.578009683952229188e-03,5.694607863389678296e-03,-9.798285311876439252e+00
2.246969331643197470e-04,2.150671304810487881e-03,-9.800221396449501299e+00
2.781256167546060972e-03,-1.408339664683521753e-03,-9.783819357702855157e+00
-7.308102337136252423e-03,-7.838155740413634779e-04,-9.794650571608938705e+00
6.572480690020217949e-04,2.894765293453078342e-03,-9.799901816580307568e+00
-3.753538038704689033e-03,1.447744310315729650e-03,-9.789007940156622567e+00
2.686322997682638429e-03,-1.110002982214312178e-02,-9.788290575945026717e+00
-5.320749349427305284e-03,6.693363356553723963e-04,-9.792793927880170557e+00
1.541853519462851136e-03,8.266830414364163826e-03,-9.795554576610449260e+00
-3.078000125528561077e-03,5.132913039007462423e-03,-9.792529342596639097e+00
-9.903538968664754236e-04,-6.536991207451524517e-03,-9.796917365346946127e+00
7.988684122327126963e-03,1.038844799883621023e-02,-9.801221083610762719e+00
2.015994398586892344e-03,2.595787826775796271e-03,-9.798348903363642393e+00
-6.442574575541894916e-04,-5.235117847594276952e-03,-9.790835139065924508e+00
-5.054314048506773974e-03,2.687956557128267591e-03,-9.797407215227265098e+00
3.887673999973636357e-03,-6.833855598075538537e-03,-9.806159371643905942e+00
-3.574563066866898089e-03,-4.831804589139165711e-03,-9.787601806652645564e+00
1.151915319855776893e-04,8.016176127480780997e-03,-9.795638964149905092e+00
1.177457747972882008e-03,8.395500395962939705e-03,-9.801975654417573125e+00
-7.692993275684703765e-03,2.836118715172742961e-03,-9.796317532186014532e+00
-5.343610400020354020e-03,1.218918947582204584e-03,-9.791510133645298097e+00
2.181805589400965303e-03,2.179100812490399833e-03,-9.791461934566440206e+00
3.104957605693627401e-03,3.046899530377356231e-03,-9.796429068048610134e+00
4.731061247655014498e-03,9.138542351714750572e-03,-9.798197332557998962e+00
7.545418389249078199e-03,1.651323328020204862e-03,-9.803753747110089733e+00
-3.366446944100220245e-03,-1.119639975072510762e-03,-9.801469122948070378e+00
-1.807861047004271152e-03,-5.481847278824241018e-04,-9.797249400263984498e+00
-4.433431255408298508e-03,4.526158010003218483e-03,-9.802244231416016973e+00
5.252038776288404757e-03,-1.021331344843645454e-02,-9.799398759671252179e+00
4.343970551633401234e-03,2.334369830479811315e-04,-9.805378812616035944e+00
-3.294058844923369866e-03,8.153709615394860374e-03,-9.791904918436408423e+00
3.711941704217151892e-04,8.820528760164959847e-03,-9.789659535997843776e+00
-1.103835521164511606e-02,1.118200857755240500e-03,-9.797334133049805160e+00
2.110388182218801614e-03,9.304850925064748687e-03,-9.799447329074684632e+00
2.233546709922769758e-03,4.557070502102475787e-03,-9.795409816840257022e+00
8.029418804851301680e-04,-3.423745089321221166e-03,-9.803703386207478943e+00
8.505063662780880515e-04,-1.216699529617283528e-03,-9.790624640277730606e+00
1.923315420225026311e-04,-9.132202420601766594e-04,-9.793313645419857494e+00
1.670438687338585138e-03,3.417430990061707911e-03,-9.790277764327734999e+00
-1.424198815288534601e-03,-2.791504992986481876e-03,-9.793876016914570215e+00
1.278176317191173118e-02,1.287803535505717151e-03,-9.792988756167977371e+00
-2.542285707626024214e-03,-1.332073096478173999e-03,-9.788681120782252165e+00
7.571126930746257047e-03,-4.171870824346168849e-03,-9.788405946945873737e+00
-3.384733878348258722e-03,-7.445005474287166164e-03,-9.801150096219499730e+00
5.180315564667674171e-03,-8.409829908091257314e-03,-9.797646450553550324e+00
-1.391944333580564207e-03,1.036070278327666733e-03,-9.789456268341783840e+00
8.059844388432635051e-03,-3.886370276800042191e-03,-9.791733001235467526e+00
-3.217413947304336233e-03,3.265402053005966084e-03,-9.802482317896606290e+00
3.441309333152846490e-04,-2.216417387339497756e-03,-9.785929401125065041e+00
-5.016195201754885353e-04,-4.009243330467000994e-03,-9.788577805162798740e+00
2.522575733521085551e-04,-1.079876101356621980e-02,-9.791191300225026595e+00
8.875514067252267270e-03,-9.461406879245608942e-03,-9.794407763002890732e+00
-2.223257786178624990e-03,3.826321099178518845e-04,-9.793555112929576367e+00
-1.609371380631620038e-02,5.847956902953276026e-03,-9.797742597053701985e+00
4.524588838084145880e-03,6.835926484078161652e-04,-9.796696099657735246e+00
-1.138620459909604234e-03,-1.973281089675422376e-03,-9.784798284681658131e+00
1.389102292087700079e-03,3.202735450130940725e-03,-9.795216144290110449e+00
5.152467216510905543e-03,2.978529935446125668e-03,-9.788364781077813603e+00
2.778034930711267576e-03,-2.884839736893298704e-03,-9.796386880662442564e+00
-3.323346824002883747e-03,1.062961568930029894e-03,-9.797445990233269342e+00
-8.300610711972635294e-03,4.039804448517795958e-03,-9.795640835655607503e+00
1.035227314964873996e-02,3.486063122574122475e-03,-9.795074443308903867e+00
-3.756146263554596253e-03,2.975874665267850671e-03,-9.790876848119058451e+00
-7.548777007777925010e-04,-4.834655898761148173e-03,-9.795587590174729797e+00
-1.868682510320905741e-03,-4.150154606187880790e-03,-9.795839963028228681e+00
-9.597671568016414830e-04,1.678943630361136351e-03,-9.805145483034731768e+00
2.491491470468668989e-03,5.079029000100100579e-04,-9.790441334215758573e+00
-4.267174500902644330e-03,-5.254354931006487324e-03,-9.791002656399854231e+00
-4.905355462576680217e-03,5.163340521633449746e-03,-9.793695075489186053e+00
3.642448359034568088e-03,7.804083529347670585e-03,-9.783705244446421645e+00
3.558215496314830802e-03,9.410229760162897028e-03,-9.796531635760633350e+00
1.941798357280427904e-03,-1.116090912138417669e-03,-9.801779489434196080e+00
-5.256868483769946455e-03,8.258226155452592226e-03,-9.800399816682029197e+00
-3.027829882139209446e-03,7.820960615548274526e-04,-9.793392624955425063e+00
6.013164896580019091e-03,3.248235533822731169e-03,-9.789649843007033780e+00
1.156044981133994313e-03,1.793673669558526864e-04,-9.798503372805344114e+00
1.392646422180288980e-03,1.403991926191609731e-04,-9.785408989398789004e+00
-2.204008193095982268e-03,-1.201543599546580667e-02,-9.795686828037203142e+00
-6.413722898333895292e-03,1.090481242335390386e-03,-9.799859740371822170e+00
6.211770876302676178e-04,-9.791618333827149280e-04,-9.792629829767799166e+00
-6.271796107902112213e-04,-4.204602357169983685e-03,-9.794459762062702524e+00
-9.133598856086161530e-04,2.998901709844928494e-03,-9.783941383711690420e+00
-8.336922756271262711e-03,-5.062070673383029136e-03,-9.804743334177262071e+00
2.160582687347640043e-03,-1.191910569644049180e-03,-9.793345335483088832e+00
5.044734865110734288e-03,6.398032931916962547e-03,-9.793158859039015951e+00
3.677338455687290033e-03,-3.974301384391569318e-03,-9.798629824620702422e+00
4.002171644117774423e-03,-6.512404900438215592e-03,-9.799186821533197644e+00
-6.189177316783544408e-03,-8.739030518901211991e-04,-9.801475376972769382e+00
-3.386021901005164050e-03,-2.090037171024925877e-03,-9.788448194763082810e+00
5.560933175518494379e-03,-2.158279244679697437e-03,-9.797297408526953078e+00
9.440817340706961561e-03,2.970421279516376190e-03,-9.793254604861644452e+00
1.160055035167915785e-03,1.856974427485022809e-03,-9.792503126814317227e+00
1.055428163771291605e-04,-4.108114449963231989e-03,-9.796565918811689144e+00
1.632359254514932677e-03,4.155810943317256138e-03,-9.791843790106147694e+00
-1.716381905541751506e-03,5.153819168662054397e-03,-9.791719467010249645e+00
-5.063591632938861144e-03,5.701739153202781130e-03,-9.795359160134895049e+00
-2.470884108581287313e-04,-3.974149209349458838e-04,-9.787545345232466332e+00
-2.186413496038081602e-03,9.021186722246060316e-03,-9.797631304279498465e+00
-6.078897164866974012e-03,9.974951109515229480e-03,-9.799374507587595318e+00
-7.158807633742264934e-03,1.565858960203838366e-03,-9.789940189347088761e+00
8.747869485049455593e-03,3.126251980212308920e-04,-9.789294478945295808e+00
2.821472641178722745e-03,5.892137103786425183e-03,-9.794175129593424955e+00
-1.646472546234368481e-05,-6.311666497912370687e-03,-9.797126180261116701e+00
2.410310382958518339e-03,-1.081648817944648629e-02,-9.788585598193005666e+00
-6.756090269061917029e-03,3.998239160398475538e-03,-9.798696964573144541e+00
-8.484623126339831123e-03,-3.943646548141481294e-03,-9.791880412236707798e+00
-6.576758007065071007e-04,-2.393091909920573319e-03,-9.801936788412907831e+00
-8.745330054529945607e-03,1.337971460085530086e-03,-9.795108165755435081e+00
7.716056745084182503e-03,-3.493387855206308255e-03,-9.796446498223001953e+00
2.085781088279715229e-03,7.607785407209416949e-04,-9.792668612654132687e+00
8.558069743555132142e-03,-1.727124058716632271e-02,-9.798032893278451283e+00
-6.677267482199610721e-03,1.812504318100083755e-03,-9.785827149081349319e+00
-2.449481587276544983e-03,-3.542022995540272754e-03,-9.795050368467579816e+00
-6.231061790532040415e-03,-1.258179551961192955e-04,-9.796420242502014375e+00
-1.180550209543666969e-02,7.045567867274652243e-03,-9.796478215437645076e+00
1.311120680274655437e-03,6.518961519032069260e-03,-9.799749327600610016e+00
-1.195849168489805138e-03,5.270051620530047908e-03,-9.798972886548851235e+00
-1.685133159572235967e-03,-2.765483573207180076e-03,-9.791546671429106397e+00
3.096292854660152166e-03,1.750339468191785099e-03,-9.791188333000397037e+00
-1.831330486376345820e-03,-3.450965281704793022e-03,-9.798292368025313337e+00
-3.824047835595792335e-03,8.291166439068691982e-03,-9.793078812172565151e+00
1.270733140711804467e-02,-7.520329656045765749e-04,-9.797625398648632356e+00
-4.703168860321827426e-03,4.053046853088746924e-04,-9.799034786706878108e+00
4.599249649722699819e-03,-2.586134160348369047e-03,-9.807657832041705603e+00
-3.887788261020598459e-03,5.636846895969043793e-03,-9.792435746453367784e+00
5.718906934782779124e-03,4.864806694234282206e-03,-9.792671633942884313e+00
8.058507992770524986e-03,-2.430974573912425638e-03,-9.795988870992088593e+00
-5.821019525227057352e-03,9.517840911151122067e-04,-9.793013446734821770e+00
1.040242062738780046e-02,-9.897350880854846600e-03,-9.799447817693712537e+00
2.445190920199220071e-03,3.827184475365445326e-03,-9.795510871970558142e+00
-5.358657431097764434e-03,1.449026762470422176e-02,-9.799313849481166017e+00
-1.026813643838605595e-03,4.701834713417563962e-03,-9.792078070998631034e+00
-3.546452619141036468e-03,7.254864597384875699e-03,-9.783864363550016208e+00
-8.922447364043597368e-03,-4.505097517865980575e-03,-9.792921340463520252e+00
6.416607506036274902e-03,2.343547238957124131e-03,-9.797006369305451656e+00
-6.774662911956419106e-03,-3.580495728555654986e-03,-9.796642116961919555e+00
4.245056054083948781e-03,-8.242527761067545283e-04,-9.798829033297598912e+00
2.236364517021547770e-03,-1.485052003306515378e-03,-9.793394289288242405e+00
-5.034917308690926852e-03,-9.616072187979358889e-04,-9.794784667973774006e+00
-1.728414407960285511e-03,1.803559495227233939e-03,-9.797793258027107655e+00
1.380929700884402523e-03,-2.561653981814404190e-03,-9.800806123308079876e+00
-6.662155160151353450e-03,1.564499238358056611e-03,-9.790022371481903463e+00
2.525618575340009449e-03,4.964396889789749953e-03,-9.800793568930725286e+00
-3.638178815598794389e-03,-4.026898320574717922e-03,-9.792932669296760650e+00
6.111536516746531728e-03,5.284236487744318339e-03,-9.792005081921578480e+00
-5.803254967720849512e-03,3.277857485351795119e-03,-9.796406767966253426e+00
-1.340503253438117895e-02,-6.835824071201244446e-03,-9.789495231957646482e+00
1.336424889359721403e-02,1.762502725512703943e-03,-9.793860943441329070e+00
-6.585984079785128613e-03,6.636271148946021325e-03,-9.792717440530196882e+00
-3.546240863307484510e-03,-6.827002939825139137e-03,-9.798807473981614891e+00
7.177372333911393983e-04,-4.795461859801772309e-03,-9.794913256329314422e+00
6.890881474845705033e-03,1.049535330417761822e-03,-9.797209554026723666e+00
-3.470527871413963176e-04,-1.837565756397972023e-04,-9.796698332249247798e+00
-6.053054006000395696e-04,3.243033246110609089e-03,-9.782476627031021721e+00
-6.107107306971388053e-03,3.787564832208493298e-03,-9.798225261693707111e+00
2.366863390762262204e-04,-2.276044016506570053e-03,-9.796913413482098321e+00
8.355966934367851581e-03,-6.963049797796045173e-03,-9.793653495038102008e+00
-4.685546461679175427e-03,6.330674673111590448e-03,-9.795983673153342508e+00
-3.209622991260782307e-03,4.574186091737398110e-03,-9.788150925061581020e+00
-2.355613697571787984e-03,4.538715851272323056e-03,-9.793569088553319091e+00
-7.910143440215539057e-03,5.341457693337357988e-03,-9.799847791898724125e+00
-2.034288810137271919e-03,-5.186060781125165567e-03,-9.803863929674548672e+00
-9.307685915966701362e-03,3.636938367650932417e-03,-9.795153247362945237e+00
-1.442392689068127017e-03,-4.603431886862503742e-04,-9.787744255238685298e+00
8.342679543426749543e-04,-3.369841177297303730e-03,-9.792534704886325159e+00
2.663163991778391259e-03,3.218674342298688453e-03,-9.802649824749078533e+00
-8.840271202445681986e-03,9.124873529728546326e-04,-9.796501074507631301e+00
8.371118630138244410e-04,-4.462719638604841399e-04,-9.799699726518273479e+00
-2.163339082935158975e-03,-1.261242805363611483e-02,-9.797559506612524061e+00
-5.059654501536244194e-03,-3.205343792606673691e-03,-9.798335306660451494e+00
9.123018430119278618e-04,-3.585761748200181741e-03,-9.800559687283522337e+00
-1.554284874836093545e-02,1.717530250174221498e-03,-9.798870788765999151e+00
-1.179348318405756173e-03,4.871497600067146820e-03,-9.795517093350623483e+00
-6.401437670238880294e-03,3.660837894035378400e-03,-9.794360111415860715e+00
-2.476896654738385169e-03,-8.538390024592451208e-03,-9.794488630882645097e+00
8.295963726969240938e-05,-7.945869375386476613e-03,-9.792204406320719201e+00
-7.679652914526529511e-03,-2.919033643572510953e-03,-9.792925440725785080e+00
7.839679442729766481e-03,4.131055195381157230e-03,-9.793958358521338781e+00
1.989477021746103094e-03,6.231542426659287398e-03,-9.795156687751124025e+00
-8.359086429906882609e-03,-8.372196942830416322e-03,-9.802993885566300136e+00
-2.388107184408004048e-03,3.659272433140424007e-03,-9.790988127488926551e+00
-1.055792632274728292e-03,1.851207719470034606e-04,-9.797962751374344137e+00
6.001697519525973738e-03,-1.369073422823439967e-02,-9.784957510764494160e+00
-4.657747215382865465e-03,5.949640071040967343e-03,-9.789811447459413785e+00
7.648961725033718954e-03,-1.827966025121360166e-03,-9.792182048683134354e+00
7.044552612177956480e-04,2.313330395187766786e-03,-9.801790007136757410e+00
-4.015856308333450183e-04,-1.067413091505434652e-03,-9.790000836575035947e+00
-3.288828143292589750e-03,-8.725800503862487460e-04,-9.792124335886102315e+00
3.163560082541919637e-03,3.245107826967731819e-03,-9.799603849364668662e+00
9.951023794845759662e-05,5.079610817990294451e-03,-9.797339452499874923e+00
-2.493653336845580697e-03,4.626760304034830025e-03,-9.789542754255826651e+00
-2.526002643206567283e-03,6.616377603089438307e-03,-9.792469962720190324e+00
-4.791012548968304825e-04,6.988590179210155649e-03,-9.801353340108793333e+00
2.055680864586874150e-03,7.219508050524313381e-03,-9.794786305706656648e+00
6.910174746411779654e-04,6.126167433906988535e-03,-9.805506747903574905e+00
1.257994734088656308e-03,-1.577228658401191386e-03,-9.807357665539568004e+00
4.165460122757391227e-03,-5.638771042834481509e-04,-9.794318351241955156e+00
4.455586518187576277e-03,-2.717106425239023196e-03,-9.784436577040631633e+00
2.122906153769307976e-03,9.895940668183608475e-04,-9.802927852273670695e+00
-3.117891537820344488e-04,1.229416996300101983e-03,-9.786786071552132427e+00
-3.082776508355065579e-04,-8.052537402337177699e-03,-9.799439362060464731e+00
-1.145396798623114602e-02,1.216586864751006882e-03,-9.796577330485543911e+00
-3.559064802214686411e-03,-1.707914826472983413e-03,-9.800485752294177288e+00
5.955532855533120402e-03,2.305907112532971492e-03,-9.796788241732487634e+00
-4.201991136739760546e-04,-7.232214909868803394e-03,-9.793643375347771851e+00
-1.564841049305318050e-03,-1.062622454540980855e-03,-9.802768359851691926e+00
1.835319701241511225e-03,-4.114252265049565295e-03,-9.800564360981180556e+00
5.005753263157084604e-03,-7.040111768922047500e-03,-9.790656465789711049e+00
1.241973573733004196e-02,-9.930296847642631347e-03,-9.792829521739850662e+00
7.903810445293492012e-03,1.083673719902146200e-03,-9.790826948003727992e+00
-7.286941553085966037e-04,-4.187097896891488029e-03,-9.791747713554945776e+00
1.942696235967914745e-03,6.521555497377929051e-04,-9.791295350303673928e+00
3.474849477969351938e-03,-3.840010050290977150e-03,-9.793385928625104597e+00
8.733477131956783948e-03,9.044008145548412814e-03,-9.792439385083708814e+00
-1.505896466116311188e-03,-3.301553350941238349e-03,-9.797134284518378422e+00
5.502628230422866411e-03,2.633509509772299917e-03,-9.796799441785930540e+00
-3.880115685672461904e-03,-1.826927441635509738e-03,-9.789779525198603949e+00
1.644035901548398073e-03,1.879161180911390755e-03,-9.790652720285285326e+00
-3.152494983860267604e-03,9.290288166433263717e-03,-9.788781937737534022e+00
-4.670870905737897153e-04,-8.089246063158800695e-03,-9.796241543288928710e+00
-2.239671935937980266e-03,1.118371365655782728e-03,-9.793410415225743293e+00
3.303704181843956098e-04,-4.725215277267958217e-03,-9.798360899411504121e+00
-1.547180644923701462e-03,-5.367783350860597623e-03,-9.794139573375051810e+00
-5.359717614880916969e-03,-2.330335979531110088e-03,-9.798725838749499317e+00
4.155560515462195480e-03,-1.124945009297694844e-02,-9.801500893460465491e+00
6.681052392178653959e-03,-2.034111847460497082e-03,-9.793623829645820678e+00
1.403580555633871570e-03,9.978790298082346535e-03,-9.797802090491645188e+00
-2.405385813101724741e-03,-8.305935445253556648e-03,-9.790360003701806590e+00
-3.410252821270016738e-03,7.017780397492725739e-04,-9.795502875899666506e+00
2.366167801556360532e-03,2.259068510602345922e-03,-9.787394298203274445e+00
3.152187131525867650e-04,-7.478948471377638331e-03,-9.793167527760722635e+00
1.001985108762482729e-02,-4.533413354834280908e-03,-9.792683724295789816e+00
2.356338720507609227e-03,2.861937881592628921e-03,-9.797400899928097928e+00
-7.314275044462218052e-03,-5.907470242801184275e-03,-9.788941855067424314e+00
-5.498868909477255297e-03,3.475038932017993337e-03,-9.787874771126315210e+00
3.763798970377854082e-03,-7.850979431274485425e-05,-9.807208894427239088e+00
6.775569202301255124e-03,3.574314705129223984e-03,-9.796168833288566802e+00
-7.262818438849212056e-03,4.641069907292403804e-03,-9.789529034147765429e+00
3.292425570797081341e-03,-8.845211371683312992e-03,-9.795786799758495533e+00
-7.046550852000388592e-04,3.271561229520162945e-03,-9.797917343409906721e+00
5.199311345103888038e-03,3.920637514164144999e-04,-9.784348482948699299e+00
1.033304351006692282e-02,-1.617634217801317952e-03,-9.786805813446155966e+00
-2.483147590311358607e-03,-1.366325300011028655e-03,-9.794447595165612697e+00
2.530825610604971101e-03,-8.520993403187297277e-04,-9.802626490380466961e+00
-5.619374289075130917e-03,-1.783935990187612191e-03,-9.793806151083138900e+00
1.588128821514896323e-03,-4.157941754448330265e-03,-9.794345319503943159e+00
-1.985542978896590385e-03,-1.029478757977965626e-02,-9.810239342419800224e+00
1.306800401562740847e-03,1.125665598751763620e-02,-9.792134276610545029e+00
-6.289276564523920560e-03,6.148070570902353441e-03,-9.791988850791208066e+00
2.268520000901051801e-03,-3.966374874250121023e-03,-9.789078309857677240e+00
1.470029236224489760e-04,1.342924891544400106e-04,-9.803547636218199912e+00
-3.700304375877975626e-03,-3.606072092504385325e-03,-9.800601651900269218e+00
3.728858179195261753e-03,1.244311247384621800e-03,-9.793934859352207312e+00
9.378628200047747212e-04,6.197510946522815679e-03,-9.795121894157805542e+00
3.627081828024235430e-03,-4.112043017998755386e-03,-9.790650139207826896e+00
-5.287832096489584674e-03,-6.191205453354262957e-03,-9.793530972275801716e+00
1.237135504863076836e-02,-4.468589390464930595e-03,-9.795689330830150254e+00
6.840526929089039629e-04,-1.547266365257525230e-03,-9.794930406633248765e+00
-9.224338602925520603e-03,-1.674112278851754574e-03,-9.798479199252611238e+00
7.912882424029347647e-03,-1.632289154283458063e-03,-9.795174646463626900e+00
4.029243483055495838e-03,-1.004040618714641033e-03,-9.798734767281940705e+00
3.120268623465354257e-03,3.501552215126332336e-03,-9.786689447923716756e+00
-1.144986777940788965e-02,6.923545449467490270e-04,-9.792104528854006062e+00
-3.065649193176228637e-03,7.160142974986022021e-03,-9.791420761252123128e+00
-3.012653630783165403e-03,4.284905224138293306e-03,-9.798397485350317737e+00
9.036566789795967558e-03,-2.140339286296975927e-03,-9.801202359475457371e+00
1.846074050954400921e-03,2.359593938956227113e-03,-9.802220915621765229e+00
4.785368288607347136e-03,8.082752913131626207e-03,-9.803558965577259698e+00
-2.204189276729683934e-03,1.215009906987725256e-02,-9.793653072254006275e+00
3.661753504756227930e-03,7.723072555330121394e-03,-9.789828108736541523e+00
-2.456074308807299107e-03,3.158415702888107447e-03,-9.793618914789334440e+00
5.314960096806045468e-03,-7.258239463753043443e-03,-9.789747916278585649e+00
-7.171611618232101191e-04,4.838365812228678699e-04,-9.797474296777066272e+00
5.306388235706379318e-03,-2.923735558884818422e-03,-9.803148546440423772e+00
-1.913410428309239846e-04,-8.386255538775951382e-03,-9.793813381268304141e+00
3.320142764752453957e-03,-2.211482655188162262e-03,-9.795649121116907665e+00
-2.733387977796330331e-03,-3.311118304703968593e-04,-9.794018972949494639e+00
-1.379978418113867551e-03,-3.949862512472180308e-03,-9.798761875435053170e+00
-6.715046054821443081e-03,6.199478411541858337e-03,-9.786810503108762660e+00
1.246078511153066344e-02,2.966763402027450692e-03,-9.799946586898075296e+00
2.565848246871153208e-03,-1.005358732356637173e-03,-9.794887087743575194e+00
-1.985757867679871416e-03,8.936273738226671853e-04,-9.780401029434573346e+00
-7.245759404387378238e-04,1.423385103560476051e-03,-9.788439984450493014e+00
-5.197660539414165892e-03,1.076781133959196562e-03,-9.793532760595713427e+00
-1.039067711897074045e-02,-2.895505487349272090e-03,-9.799452613037365367e+00
-9.969306759181819234e-04,-1.669256312210428610e-04,-9.801436342215470887e+00
4.712590745769696223e-04,3.480293803290554922e-03,-9.793837970900257872e+00
-1.064062209942764729e-03,-7.304967048781078019e-03,-9.790470637238755103e+00
-2.329393820797287691e-03,-7.610758118393551493e-03,-9.787815523072895374e+00
-5.157741739431664744e-03,1.591009601167427253e-03,-9.802865571024222291e+00
-1.978432465203698067e-03,-6.318321431052834926e-03,-9.798163731532147480e+00
1.150946543075635157e-03,4.393427229647597909e-04,-9.789670577359748549e+00
5.767755660952192560e-03,-1.339051452977011543e-03,-9.798522770166385953e+00
-4.354044020377852674e-03,5.497269081639886631e-03,-9.795926366425295129e+00
-1.150448900474924322e-03,-7.097604614060119572e-04,-9.794426267496525895e+00
-1.376940524961724590e-03,7.082718541446085016e-03,-9.793522418882062652e+00
1.316180085750572081e-04,-5.829258348274622172e-03,-9.801622753935410159e+00
8.042544973714744680e-03,-5.732983071420264323e-03,-9.798424837336495941e+00
-1.273796351791029683e-03,8.658208798904437967e-03,-9.799884998541809722e+00
2.108241225450018744e-03,-8.258082356823077952e-04,-9.805580233692097636e+00
4.924026375581768561e-03,-7.073042404409409477e-03,-9.793563178246877499e+00
-3.818765795255498613e-03,8.181488180673259988e-03,-9.799463973399801020e+00
-2.219791263298511504e-03,-1.791193706011624061e-04,-9.792756783589188885e+00
1.677558427313414037e-03,-5.352208154000273263e-03,-9.780898042083483901e+00
4.245249271796625555e-03,5.546224463938167169e-03,-9.803217456097238269e+00
-1.426974064163203304e-03,-3.853881414187103425e-03,-9.794836112678174445e+00
-3.330357242327783643e-03,-8.549035717151719921e-03,-9.798410398276358180e+00
-3.058537263339300948e-04,6.062120609640871474e-04,-9.790515530853573622e+00
-8.618284045686170486e-03,2.282491429507667487e-03,-9.799735051686784715e+00
4.704435314092647591e-03,8.928374926780337575e-03,-9.795977977211061116e+00
-2.254835315325511100e-03,-9.621266550955270835e-04,-9.798738438268690842e+00
-5.194316275794948765e-04,7.051901524878411744e-03,-9.797041473118660804e+00
1.643450338192055599e-03,1.200379990069004761e-02,-9.797555394851293897e+00
-8.962807080640851354e-03,5.569214016701079170e-03,-9.800213055756900715e+00
4.471825466635874057e-04,1.878509602721666408e-03,-9.792435304386042816e+00
8.108854887901103745e-03,2.115660722655246517e-03,-9.781974093795987812e+00
5.447300782964253733e-03,1.357242954964274799e-03,-9.800903280640195447e+00
9.107506791367609919e-03,5.168979672809862055e-04,-9.800408760743287928e+00
-8.010681045763128061e-03,1.858759906263655892e-03,-9.788211356071107261e+00
-2.767420100051758581e-03,4.555723937357691704e-03,-9.806038730882960408e+00
-8.076588937701635953e-03,-2.861635479257556777e-03,-9.799449931089174726e+00
4.390874849784080249e-03,6.213973546609016969e-03,-9.807544978570989613e+00
-5.032022174035442885e-03,4.505677763458075871e-03,-9.787355504079760848e+00
2.530780115316643656e-03,9.746884098998792600e-04,-9.791542715292928634e+00
-4.286398410089887687e-03,-3.213432957142947697e-04,-9.798806965143969094e+00
5.451871349236663521e-03,-2.111738401148131362e-03,-9.802281035057220038e+00
-8.572656684812444278e-03,2.420242450579613951e-03,-9.786981798010202738e+00
-7.246422236452026771e-04,3.623784141870656835e-03,-9.801048857297569583e+00
-1.048396185014075638e-02,-5.900314477856425689e-03,-9.790602390000398003e+00
-8.816249852945379217e-03,3.222968043990161874e-03,-9.796805284670679015e+00
-3.282761834776837424e-03,1.968455019790151753e-03,-9.794691788205025063e+00
-3.648497886030349462e-03,-2.579515560581812413e-03,-9.790352167462883060e+00
-6.511830086510476436e-03,3.066329714287997256e-03,-9.795253611831309826e+00
1.517947472215569991e-03,6.619973523594853589e-03,-9.796586395026004368e+00
-2.620521007636293512e-04,4.994754184115074436e-03,-9.792329566118649353e+00
1.017293712623334491e-02,-5.253314017063361388e-03,-9.789247369702463786e+00
2.354426977925713673e-03,2.078570710950065382e-03,-9.789862383949243352e+00
2.936550440267281844e-03,2.183009717648157991e-03,-9.789284082059019454e+00
1.665723254581412622e-03,1.655366101987656080e-03,-9.796522813031559807e+00
-5.304438245022773633e-03,-4.491785179497853088e-03,-9.785224415194736736e+00
-1.028595034506065960e-03,2.791602230562635623e-03,-9.799641235826904051e+00
1.016362902627828552e-02,1.992795216767942034e-03,-9.798961289924529083e+00
-6.556687291320892168e-03,-7.558905686923919100e-03,-9.795273463701366978e+00
-9.901900052395442089e-03,2.665483893936602001e-03,-9.793437521127444256e+00
-1.349460436624505186e-04,5.032073576156260043e-04,-9.800268392262244888e+00
1.134271305916930220e-02,1.003365165320271781e-03,-9.799001344722805484e+00
-9.396126421102467437e-04,5.672309861864478601e-03,-9.793095262171625848e+00
-9.958006944317069134e-03,-3.201647813191558643e-04,-9.799450704136058121e+00
-3.729533575793861095e-03,-4.510903217772791254e-03,-9.797284860362882597e+00
-5.901958890118726457e-04,-5.362628215413594440e-03,-9.791790940072951699e+00
6.628456513006197003e-03,-3.456453054531339903e-03,-9.797108429040585875e+00
1.070530464421553390e-03,-6.858355935498608273e-03,-9.788825490798060969e+00
1.339551556638085257e-03,5.455016430127562939e-03,-9.795220183859452590e+00
-3.811331782670690678e-03,4.879279929241520574e-04,-9.798211900010263875e+00
6.953308889539787374e-03,1.555638880049176466e-04,-9.791477365057179583e+00
3.129429380708696317e-03,2.350696712252093885e-03,-9.785368303433013892e+00
-7.286791816377329381e-03,-4.672753423803247897e-04,-9.800257986520186648e+00
-1.643399653699657154e-02,-3.460888992892804071e-03,-9.789362165641632529e+00
-2.833160847524829763e-03,2.520698165938839094e-03,-9.802081604600568099e+00
-1.975459559607826814e-03,5.843624355682714572e-03,-9.803867794656715873e+00
7.355073060735557375e-03,-8.805105710076800013e-03,-9.793455890966956900e+00
-6.225081398813316069e-03,-3.530057493747562006e-03,-9.800615405701931238e+00
5.620367755785228916e-03,1.390047258333397583e-03,-9.794048074263736581e+00
-1.015716803624130277e-02,-3.934472089248511849e-03,-9.793579046958260648e+00
-2.486363616106747765e-03,1.651035023517764475e-03,-9.791639919249115920e+00
3.545817432775909446e-03,-2.805326545308618486e-03,-9.795700955622910655e+00
-1.702932836096570767e-03,1.267479263722529450e-03,-9.799263975318485365e+00
2.902196008884881662e-03,5.817394324567216023e-03,-9.797808415361185297e+00
-2.812176240699471204e-03,-2.282529028232976442e-03,-9.792911269927804696e+00
-1.367980870249012153e-03,8.513746425899481468e-03,-9.803786614220431517e+00
-1.861053378340789136e-03,-8.075714088042246566e-03,-9.796824547458843568e+00
-3.788962873513484087e-03,1.322286805137566851e-03,-9.791084243691967615e+00
6.027672751955157407e-03,6.422214560207117548e-03,-9.789260876663350430e+00
9.424606374332816783e-03,-3.272667213413307363e-03,-9.794482460586081629e+00
-2.318009268614361004e-03,-2.275415763238960564e-03,-9.792943331468753954e+00
-3.222610655101342848e-03,2.503622232603724095e-03,-9.789355350947570145e+00
-2.135545953550000656e-03,7.482787293232675413e-03,-9.792296486915812892e+00
3.844911394627976899e-03,2.985697447724657092e-03,-9.789684886124398133e+00
-5.613485667548457790e-04,-3.703870811651863507e-03,-9.797934630812065393e+00
1.946935480828895261e-03,3.397331340326281007e-03,-9.788210580445774411e+00
7.671986226183022395e-03,1.001142752819180089e-02,-9.799379339069037798e+00
5.868324200229087934e-03,-1.014261414964322608e-02,-9.805208061824769672e+00
7.462631230599038135e-05,5.073786963819112896e-07,-9.792957962861420285e+00
-5.845218371913780270e-03,-6.091454552410687558e-04,-9.792834524404065988e+00
-7.331185848449028528e-03,-7.055334252371688562e-03,-9.794914053050097991e+00
-3.698105797268769375e-03,4.591695104072521239e-03,-9.791415703868670661e+00
1.170061489290716902e-03,3.037462478252993085e-03,-9.798561597935863787e+00
1.686649978381709063e-04,-3.878738604620354715e-03,-9.792943887287652416e+00
-2.983513025062991750e-03,3.429822743840561534e-03,-9.798033091908791903e+00
-5.645542892908000064e-03,-1.001690416831640430e-02,-9.794810887473538230e+00
-2.095853183882469533e-03,-6.835004183091390566e-03,-9.791077424433883181e+00
-1.064331028490667031e-03,-1.845461758645890963e-03,-9.789875848507330502e+00
-9.822273640535155587e-03,-9.956051368090687321e-04,-9.800584689609578959e+00
5.024994909823285796e-03,1.022529284520814520e-02,-9.787485735140398546e+00
9.661498813008435231e-04,3.605105532462294250e-03,-9.790831497149930840e+00
-3.863420122082387390e-03,-2.879099677601940251e-03,-9.795007122575571046e+00
-7.148820185936086147e-03,2.148454527131913097e-04,-9.788473375106466534e+00
-1.138463950254339253e-02,-4.383938781464747497e-03,-9.797432332368877894e+00
-1.985768311975466896e-03,6.755741688916567893e-03,-9.784720321463613146e+00
1.053872911229247061e-02,-4.579843624341542983e-03,-9.792446937975356036e+00
-9.860824309762462880e-03,2.863450730237095208e-03,-9.795467105954186238e+00
-2.604960300223181733e-03,-4.968986284850574657e-04,-9.791749147548104659e+00
-3.143093258297923213e-04,7.246202174911463983e-03,-9.788634182852671728e+00
-8.436673929690264445e-03,-1.861013976426682467e-03,-9.792470342283211338e+00
3.720248970692676630e-03,1.078848613582011028e-03,-9.797836539338900863e+00
-4.265649241946098402e-03,-1.509273201320810495e-03,-9.802411009179168744e+00
6.196502820323214521e-04,5.000226121806367920e-03,-9.786246063434381526e+00
-5.295944995026770526e-04,3.998660600200260387e-03,-9.800889429014921106e+00
6.675132867164274052e-04,-5.134897945580083230e-03,-9.797709424120974120e+00
-4.205106392845463746e-03,-5.493704205213161863e-03,-9.796871065514919152e+00
-7.984499500245665141e-03,-4.271239610983542864e-03,-9.795118335437996038e+00
-5.839498178011357649e-03,7.241863881590697438e-03,-9.802242459723110812e+00
-2.057932728260363731e-05,2.117989052125903663e-03,-9.785259937521583851e+00
9.949719923647848407e-01,4.372212209192706013e-03,-9.790947697847508735e+00
1.000777211419778823e+00,3.992257956293519122e-04,-9.790492739005880907e+00
9.973441293758402715e-01,-2.777747949771552319e-03,-9.802460347676769103e+00
1.003512395423309389e+00,1.145185007417223386e-02,-9.788062315152378901e+00
9.976002365225189461e-01,6.760451854094771257e-03,-9.795572011211787000e+00
9.943894248813792691e-01,-1.308594712891497029e-04,-9.791271997818128625e+00
9.999253786215061002e-01,5.681063975011497839e-03,-9.802409200724932603e+00
9.987046960705582288e-01,2.627695930896133819e-03,-9.787361513986159167e+00
1.002964429517903211e+00,2.407873799554868539e-03,-9.805305946475392886e+00
1.002996841071787770e+00,-6.452185705971638825e-03,-9.803268046401070634e+00
9.939249976339579185e-01,-2.843236265865833109e-03,-9.794927839325527685e+00
1.000831462225491020e+00,-7.478162552434442813e-03,-9.793944987363442323e+00
9.975073748048137734e-01,-2.848872745464103764e-03,-9.797558967902970650e+00
1.005771638807573032e+00,3.313888548988081200e-03,-9.789402359265800158e+00
1.004206050737592282e+00,7.447298846168341757e-03,-9.793964146943041627e+00
1.010458943144263877e+00,-4.006965108089130881e-03,-9.794103578463644766e+00
1.006714489720768935e+00,8.973116467885948466e-03,-9.791302148707952568e+00
1.002801939378101359e+00,-3.760060838894369734e-03,-9.792640101438948363e+00
9.977864032374184067e-01,8.109761439766289409e-03,-9.791414244174264425e+00
9.972467726762602735e-01,1.797083278596365045e-03,-9.791470141472679245e+00
9.996279590911862911e-01,1.822596795565273277e-03,-9.793274217564846396e+00
1.001753189386395793e+00,-4.561610316883305850e-03,-9.796064657179385904e+00
1.000422143744074566e+00,-7.259334582207305903e-03,-9.794747782583693052e+00
1.003834473092265922e+00,-2.484749412359845994e-03,-9.794794846144196043e+00
1.003291572254723096e+00,-6.677212773046023106e-03,-9.796069735521488298e+00
1.003462200452252207e+00,2.202046485983019056e-03,-9.797002511164130567e+00
1.000025767253579501e+00,3.362567827834495732e-03,-9.797767337734272886e+00
1.001992498519572505e+00,-8.100267538560645270e-03,-9.796061725249087360e+00
9.979651913376029748e-01,-4.690701346263327284e-03,-9.794019032256542800e+00
1.002904959008984687e+00,5.626593958974766829e-03,-9.797568538410759587e+00
1.005308384570831048e+00,4.128106084280678233e-03,-9.796005891932441756e+00
1.001345009058887792e+00,-4.535273723420473087e-03,-9.801271923312805612e+00
1.003104388152925353e+00,-8.070826247704887546e-03,-9.790852622030804753e+00
1.000365673179971271e+00,5.047547357987747403e-03,-9.787981826711853017e+00
1.003829797256325040e+00,-3.724117924075452321e-03,-9.793836363057490502e+00
9.922177345619332955e-01,5.805209049092417174e-03,-9.803705032998983881e+00
9.975189445219347917e-01,-5.688468410964082553e-03,-9.783930256978823792e+00
9.919985638877818479e-01,3.586151309432298456e-04,-9.789873290414062623e+00
1.000795535532025937e+00,6.624935759337795098e-03,-9.797990884002013345e+00
9.970029295149988036e-01,8.904012974892038185e-04,-9.790823762276275488e+00
1.000989908923044736e+00,1.424712604500046227e-03,-9.791673102090133085e+00
9.993475873710656598e-01,1.271855227043451652e-03,-9.799372145512720067e+00
1.005466572800782776e+00,7.936770779506999857e-03,-9.793500913804084718e+00
9.935489023696207900e-01,2.715449181353773566e-03,-9.786200581784843422e+00
9.923874733753818012e-01,7.192828921568638636e-05,-9.794817852571235051e+00
9.899934533362082512e-01,-1.451196304269489245e-03,-9.801460962888112860e+00
1.009878375654164939e+00,-1.471501419843035396e-03,-9.791298552243954845e+00
1.011840576228289823e+00,-2.087107482527335734e-03,-9.795701655101318295e+00
1.006804679353446197e+00,9.526379524288157126e-04,-9.798333948497573331e+00
9.950150745651743511e-01,3.275011004380420487e-03,-9.797943815385560029e+00
1.002315109027740014e+00,7.667798141894049437e-03,-9.789470760924826820e+00
1.001289556831744587e+00,6.528613984662733462e-04,-9.793508068700424118e+00
9.980901719680119744e-01,3.459497078762787271e-03,-9.788829863335191561e+00
1.004053616035514684e+00,-2.316643255605676122e-03,-9.791134349613448862e+00
9.980009060673251664e-01,-1.076966934221336089e-03,-9.790130909326135722e+00
9.935532967031877050e-01,-4.540926476149348932e-03,-9.794626893036440407e+00
9.933815818149858146e-01,-4.079494182050565076e-03,-9.795640387305221353e+00
9.982398987336021934e-01,-7.514493902528468321e-03,-9.786418870892008570e+00
1.000396890318590248e+00,7.748596701597913403e-03,-9.807185970192874080e+00
1.004285328648904407e+00,9.016018926950202569e-04,-9.798741579220189735e+00
1.001954190302326353e+00,-5.783335505448222030e-03,-9.794572375250917062e+00
9.974347346351261079e-01,1.106690392509097377e-02,-9.801753148976418473e+00
1.002967462522870168e+00,-4.024246284965833035e-04,-9.798095947102746450e+00
1.009661767388203790e+00,1.479345819780675166e-03,-9.797608085737373074e+00
9.993848982872679532e-01,4.759247532443325844e-03,-9.797124096722278352e+00
9.954798354275988803e-01,-9.676445850567380082e-05,-9.799139619043952365e+00
1.002582566324412783e+00,-4.888115788428089477e-03,-9.789826343207302273e+00
9.914140752629627684e-01,3.359878306268781990e-04,-9.801470212372995761e+00
1.007509206519304090e+00,4.045314817306665429e-03,-9.786264691946865213e+00
1.007044858215200067e+00,3.118975910485392335e-03,-9.794224521406192707e+00
9.994302528450638157e-01,-6.705925509277107198e-03,-9.798951997443749562e+00
1.001244497262730793e+00,1.243913826391738597e-03,-9.800186350946605174e+00
1.003152462147019586e+00,7.654328475200723562e-03,-9.799765715574610070e+00
1.002542600167593889e+00,-7.939856648072538686e-03,-9.795348714485085040e+00
9.977179766576752540e-01,-3.556419621202169031e-03,-9.808679791531053738e+00
1.000675229445320280e+00,-1.185231528112311652e-02,-9.795499721779997060e+00
1.005867572402353582e+00,8.875784854551493214e-03,-9.788495294653467127e+00
9.943607542349894857e-01,1.603094721420473710e-03,-9.794801756060246944e+00
1.005314829622638850e+00,-5.660243908665861870e-03,-9.792308700351439299e+00
1.007352003809558472e+00,-8.428213406632113769e-03,-9.803712307658726033e+00
9.988971691794944485e-01,1.811982106133096248e-04,-9.791866558693246958e+00
9.993686066595148798e-01,8.257289248680917994e-04,-9.791812121731112484e+00
1.009919332314816121e+00,-6.227987048454749694e-03,-9.799412871005015901e+00
9.938620265811514143e-01,8.908834645277639505e-03,-9.795438702563885158e+00
1.002404559747129831e+00,8.860596885077468010e-03,-9.792980398799366881e+00
9.982222864409622254e-01,7.625685955905208389e-04,-9.801214476040938095e+00
1.001732513473228448e+00,2.094597706649539790e-03,-9.794470050822386753e+00
1.005786824093217735e+00,-1.809077160361148269e-03,-9.797210361911224297e+00
9.970089786452324132e-01,5.944974784273162477e-03,-9.800355253371092701e+00
9.968592263944765497e-01,5.004999176414645472e-03,-9.792811840020569036e+00
9.980549810159969892e-01,-4.030419897918369036e-04,-9.797846699135549287e+00
9.915591950547990585e-01,2.017457537855275786e-03,-9.794791218160042945e+00
1.000784985559502127e+00,-7.142701535112888460e-03,-9.800053424346879538e+00
1.006961620329293039e+00,-9.330513488626702599e-04,-9.803404780639628058e+00
1.002081641533577372e+00,-7.525004140749069585e-03,-9.794578069285531541e+00
1.004244972970507854e+00,5.182530849383939781e-04,-9.792807062438196652e+00
1.002655169067623531e+00,-3.660479944200814659e-03,-9.799180366956203869e+00
9.975093429662751365e-01,7.276214034365003714e-05,-9.783605585654216341e+00
9.997366584174652848e-01,7.662081792903805387e-03,-9.797080908971091517e+00
1.007864271988212490e+00,-7.202572028118935533e-04,-9.797661390948542603e+00
9.916760739489908216e-01,2.618409852378117669e-03,-9.787487963181540351e+00
9.986539484877819950e-01,3.168768434573226555e-03,-9.783389508541256774e+00
9.995578077076278101e-01,4.487406954408841228e-03,-9.796095604535885570e+00
9.984548088186178116e-01,-4.533090443979414901e-03,-9.796508030481621887e+00
1.010038685634206512e+00,-2.258198051972816131e-04,-9.798347833774485593e+00
1.002470274898000113e+00,8.867205587472401854e-03,-9.797829741311520735e+00
9.871130320232238686e-01,4.730413568779779612e-04,-9.804247969705738086e+00
1.001998306848327136e+00,3.089166624829802008e-03,-9.804050505187282383e+00
9.967158398834199406e-01,-8.429141570317018675e-03,-9.800307170457246642e+00
9.976223699897056596e-01,-6.910283925642564905e-03,-9.791371681319118281e+00
1.007111766135625031e+00,-1.648383404833703679e-03,-9.796165467547131911e+00
1.000945020731225821e+00,6.395651629726839711e-03,-9.794550263595020567e+00
1.002157631127320814e+00,-7.480743394972314171e-03,-9.796049647298133323e+00
9.988325085513034551e-01,1.086691493131881209e-02,-9.800980877850319573e+00
1.006337142495818959e+00,-1.050693771452209171e-02,-9.794688965514245282e+00
1.001816734107205509e+00,-7.903660122199800478e-03,-9.791475326466445139e+00
1.005986786078484352e+00,1.264783903026569720e-02,-9.787098189473702803e+00
1.002479926062142424e+00,-9.695545267583385212e-04,-9.794554459665480550e+00
1.005360700881387404e+00,-9.781226530671564487e-04,-9.794819828191748456e+00
9.969134300831884454e-01,9.372202385525198187e-03,-9.801585992680102777e+00
1.008728744860664550e+00,-2.785944221847453869e-03,-9.799948947635300556e+00
9.974117626912583079e-01,-6.341736090407060038e-03,-9.793339282501072773e+00
1.010660915444437036e+00,3.812221321338454295e-03,-9.796701709512532830e+00
9.973001647352768284e-01,-3.049248276711245993e-03,-9.803358807880588444e+00
9.932698888119277925e-01,4.470354859615481395e-03,-9.799358247280071765e+00
1.001220314834233571e+00,-3.924759360957894374e-06,-9.803565039101341583e+00
9.940526750459875993e-01,4.140899757770699456e-03,-9.798119663855381134e+00
1.001418066158347164e+00,-1.309831851911502122e-02,-9.793544299566438127e+00
1.007441983594836055e+00,5.301994633759398237e-03,-9.803414561849342235e+00
9.931629428851864727e-01,1.885176340427033043e-03,-9.790646587209703711e+00
1.000351384613629158e+00,-4.694515397074947374e-03,-9.785125788756257492e+00
9.899739099218883842e-01,-1.690802545572762678e-03,-9.790977216716941101e+00
1.005449318901492584e+00,4.451737915343707830e-03,-9.803019279087070714e+00
9.968656841306593464e-01,-3.857018939618379015e-03,-9.792735712488521926e+00
1.005029758706641685e+00,-1.240634829703266169e-03,-9.790535119410977316e+00
9.986431854073172243e-01,-1.028818142181887061e-03,-9.799149987269377249e+00
1.000391924338779104e+00,-1.413521836154235526e-03,-9.791056674240019575e+00
1.010855473815169159e+00,1.071790307189940568e-03,-9.803462065652201574e+00
9.929832406191498873e-01,4.864878627777551295e-05,-9.793748314593278437e+00
1.005505268381284623e+00,-9.259947025317625743e-03,-9.794829937539155651e+00
9.984803449031255385e-01,-8.530496524733576294e-03,-9.796616086834308845e+00
9.981462602722105393e-01,4.055474688506277808e-04,-9.793753844729142344e+00
1.001835927664538994e+00,1.203266997735621073e-04,-9.791475231858617789e+00
1.003975357488492204e+00,-1.655337636964502625e-03,-9.784559643306662835e+00
1.003582373422953422e+00,-7.705870488091366016e-03,-9.791219680078112830e+00
1.003744679933520567e+00,-4.510755904340489619e-03,-9.791142391348486740e+00
1.001591501208758395e+00,8.965074611675350955e-03,-9.794065442731881177e+00
1.002518210998914583e+00,-2.843978783677047779e-03,-9.795924522051896233e+00
9.997690133778712740e-01,1.208483830530534923e-02,-9.796101303454969766e+00
1.005509457862352019e+00,-1.262352584195504911e-03,-9.798730348098951382e+00
9.972191491877763214e-01,-9.446528458810270201e-03,-9.797472070776155562e+00
9.981662302056804048e-01,-9.385848980882513471e-04,-9.795668460260234411e+00
1.000188154351539183e+00,-1.537007942554840774e-03,-9.800589996515427060e+00
9.999827619660595079e-01,-3.612040965506504563e-03,-9.789785301935134854e+00
1.002357897000996090e+00,-4.361017112819751823e-03,-9.795610351104148350e+00
9.899641189039010136e-01,2.149048797272102261e-03,-9.802616881318648723e+00
9.978071314453323959e-01,-8.424867013374042271e-03,-9.798849780582044033e+00
1.004358086204384826e+00,-3.188374684266761204e-03,-9.799575813098986288e+00
1.000836583088805742e+00,-2.243066848801985886e-03,-9.793078144269809826e+00
1.001303868602047231e+00,-1.048747757018540609e-02,-9.785103839891672095e+00
1.009536522460189545e+00,4.378443584439658219e-03,-9.802105306931258255e+00
9.992501503702991839e-01,8.876252253284722463e-03,-9.796800001519228474e+00
1.003498625205264450e+00,8.073585824916296172e-03,-9.788138747395672468e+00
9.985947743394221199e-01,-1.806564309609187983e-03,-9.787067698184131359e+00
1.008246898329972607e+00,-7.346894352990774495e-04,-9.802286648026864668e+00
9.994532523957739834e-01,-6.460187470613137049e-03,-9.788747601248291019e+00
1.002841513738762957e+00,-3.281708239577690086e-03,-9.801699545454098939e+00
1.009299400831766613e+00,7.653032753447515033e-04,-9.794994436823843742e+00
1.002218101571053843e+00,9.624141530821609877e-03,-9.790515674057115092e+00
9.898867092274755697e-01,4.823555410359582456e-03,-9.791909453416517195e+00
1.007293317955167300e+00,7.577548660252487155e-03,-9.795144997121283836e+00
9.936201288398268661e-01,5.059226635108135355e-03,-9.794729017721413911e+00
9.968106101561675647e-01,-7.810488079183335866e-04,-9.801594200352221620e+00
9.968923668809813732e-01,-4.299222370685199662e-03,-9.793642668443599320e+00
9.986035913201898317e-01,-1.820996098096597975e-03,-9.799961818975047478e+00
9.946181331509539314e-01,-4.320458694716308029e-03,-9.800271013044136836e+00
9.935476182394366029e-01,-4.605911477333965616e-03,-9.794659089666723162e+00
9.954111631763699064e-01,1.438878050739691473e-02,-9.790775312924498763e+00
9.961757171287730639e-01,4.101645855420076904e-03,-9.800441284793233621e+00
9.981415196859501071e-01,-4.902225883440291046e-03,-9.794651662623294897e+00
1.003044843119077933e+00,7.725377652489913947e-03,-9.791079514794427396e+00
9.900217138645828197e-01,-2.703241026636072145e-03,-9.796870306755320001e+00
1.002062788276718575e+00,8.033624529742603576e-03,-9.792174562498356494e+00
9.997334960949040283e-01,3.434275470546784351e-03,-9.799854648279259450e+00
9.935592580086495262e-01,-6.528871289122733026e-03,-9.797347596848551277e+00
1.001039815952002199e+00,4.231519118476714109e-03,-9.792093597811929229e+00
9.975034873330761442e-01,2.637593953731407360e-03,-9.801153307305970230e+00
9.960202645335435312e-01,-8.161846793601353414e-03,-9.796187996552758293e+00
9.964582909956073431e-01,-1.347043684924636780e-03,-9.795787191905583668e+00
1.005858303744992410e+00,7.075076365845637226e-03,-9.794509018766452968e+00
1.003699033396113993e+00,-3.331929211895270394e-03,-9.787413983559440922e+00
9.992990191280280987e-01,3.781785191642081292e-03,-9.800895229604469350e+00
1.007383846125635696e+00,8.371529455933465411e-04,-9.803668672399258099e+00
1.002004368359021180e+00,-7.538097559221529223e-04,-9.802984332793601041e+00
9.985304161796410005e-01,-2.715240144304840487e-03,-9.791679777702102072e+00
9.853450069633336028e-01,-3.311510200123338188e-03,-9.794286844268849990e+00
1.000438693609957186e+00,-1.181126205886475194e-03,-9.793270964682209367e+00
1.002417702760521001e+00,-6.223834764953515598e-03,-9.786823828769716016e+00
9.991706544310198224e-01,3.466015799014423009e-03,-9.791170976117742342e+00
1.004296830864174872e+00,-3.086531075101796198e-04,-9.797901625302234407e+00
1.003686636695354073e+00,5.534937510979255626e-03,-9.789815779864891709e+00
1.000567949586637972e+00,9.918922228256710563e-03,-9.795840662744968341e+00
9.979956506573109953e-01,-1.261064540134043503e-03,-9.798381755922907388e+00
1.001573796793036708e+00,6.132211492736594624e-04,-9.794588551187903391e+00
9.900088326292537655e-01,4.776646452147358324e-05,-9.805254230333140697e+00
1.000539326163325526e+00,-3.358688733940463390e-03,-9.797978426921801542e+00
1.000513121216662693e+00,3.098065021544713603e-03,-9.792517913926534590e+00
1.004254031054258256e+00,5.260974119848855525e-03,-9.791749366615626116e+00
9.892836540636121834e-01,2.752873706082681771e-03,-9.802427983327678618e+00
9.987273793085312823e-01,1.922239296254641761e-03,-9.797268128890342709e+00
9.992454840282510853e-01,2.533799075915678899e-03,-9.799560741643723816e+00
1.004199151017200142e+00,3.149243722533816552e-03,-9.801167860132727228e+00
9.992714702403513449e-01,3.697010428980899988e-03,-9.789848928340257217e+00
9.999630094410938419e-01,9.743445665785229566e-04,-9.794665412768049251e+00
1.000694074118694044e+00,-2.761393585092409859e-03,-9.791233711283780394e+00
9.987536233290086329e-01,-6.386890306045613216e-04,-9.793543029217216755e+00
1.001938976014231653e+00,4.792333087554104774e-03,-9.794205902456210922e+00
9.955228922478563947e-01,1.374821607266659513e-03,-9.793155357188128463e+00
9.953552491020843940e-01,8.929984215701663531e-04,-9.790576164784733137e+00
9.943779569498785165e-01,-2.525803856496185683e-03,-9.791486488962823032e+00
1.001399291601282604e+00,2.606620291267355751e-03,-9.792185567742327734e+00
9.982790036259683308e-01,7.785101978370655325e-03,-9.798609382406546331e+00
9.983709747720544980e-01,-2.122364750163091161e-04,-9.797482516743251324e+00
9.949323525902830090e-01,-9.256940185833829188e-03,-9.792176564153255214e+00
9.962795467103433555e-01,7.726161942976807369e-03,-9.795116053872938267e+00
9.933123467746231006e-01,-2.140711361480288413e-03,-9.804932656376516675e+00
9.945483383382994758e-01,-4.778450335090533505e-03,-9.790686412811533401e+00
9.997954562008896096e-01,3.138083742201937341e-03,-9.800193182177514117e+00
9.918345889645205915e-01,2.018920534947679472e-03,-9.792801053369982967e+00
9.965799745735611781e-01,7.898307011219426674e-03,-9.798020120106238906e+00
1.004690471084639158e+00,-4.464255253143770141e-03,-9.793068821605123375e+00
9.979792328260992385e-01,1.273811340294808692e-02,-9.797168284398345861e+00
9.998828661899586967e-01,-8.317826299539232346e-03,-9.796972607610562989e+00
9.980207665994696997e-01,-7.003843846895355975e-03,-9.793371209001854538e+00
9.989432397207530512e-01,2.828950775535848429e-03,-9.790494606793989973e+00
1.005933228700231385e+00,-9.042655659486293837e-03,-9.793127012673647158e+00
1.000833612399903982e+00,3.556961280903268505e-03,-9.788619742452480565e+00
1.004316728058399111e+00,-1.786149343963302832e-03,-9.787587541324070273e+00
9.914915870396733277e-01,-7.756765399636571115e-04,-9.803843100530324151e+00
1.005183341304017430e+00,-1.580388131140467254e-03,-9.798356789854514304e+00
1.003704855893105874e+00,-7.163531708783881305e-04,-9.794308768250925112e+00
1.011600405917035372e+00,-1.824351942088679301e-03,-9.787909860297311582e+00
9.974165523235347663e-01,-1.606190478593833796e-03,-9.795028544535030690e+00
9.981488851132561679e-01,9.887744438661548452e-03,-9.794863902026447633e+00
1.002350438628089702e+00,-1.474654444180573121e-02,-9.793691215595424993e+00
1.006932422642363711e+00,3.976613760578237046e-03,-9.794161916099399789e+00
9.946510582550391888e-01,-6.030599870480479567e-03,-9.792668154857244289e+00
1.002459485332043210e+00,-4.113192025545987958e-03,-9.793988585387067403e+00
1.005655725971938086e+00,-8.064315933015465954e-03,-9.797447900955001288e+00
9.923273302640157612e-01,4.922591661180800680e-03,-9.787072894942765444e+00
9.982419094167184204e-01,-1.041527366029851819e-02,-9.792668819415625947e+00
1.003079087333790032e+00,-4.142766750099727974e-03,-9.799466976522341000e+00
1.007191521854735372e+00,-8.972509536835054748e-04,-9.793473691000796677e+00
9.975906799657154878e-01,-3.716372147350510604e-03,-9.797693695610542264e+00
1.005639555510324135e+00,-1.533582577469513636e-04,-9.792552698783076437e+00
9.916748486250956951e-01,-1.951777256863554541e-03,-9.796882642207568992e+00
9.992535130386278608e-01,-1.421763451383437722e-03,-9.796148998595260338e+00
1.000297706617687465e+00,3.295337912922939247e-03,-9.789189370589276962e+00
1.006127726495035679e+00,-2.659799474010980224e-03,-9.792908010602308977e+00
9.997645441032388947e-01,-2.470696756692981368e-03,-9.789778124309510332e+00
1.005181505685197152e+00,2.395326173427757971e-03,-9.795590424666697160e+00
9.945977974391383425e-01,-3.433767327854208955e-03,-9.805293944330685463e+00
1.002025448811275643e+00,1.920401721136940276e-03,-9.792195623161134677e+00
9.930062414690782324e-01,-6.453947107682865038e-03,-9.798972916310628278e+00
1.003281573077122291e+00,9.546034264635143776e-03,-9.799596089007382105e+00
9.967901174657510799e-01,-3.936268167009232544e-03,-9.800648508157816963e+00
1.003046444662342163e+00,-6.116148398707890559e-03,-9.792925435510710486e+00
9.961369077644759429e-01,-7.790111552491494999e-04,-9.798049740532794871e+00
1.001388733632569972e+00,-3.343094889588574693e-03,-9.796658231435852571e+00
1.001935477103741423e+00,-7.313125118610670078e-04,-9.799132397267440453e+00
9.937582215067521929e-01,-2.272388112641993575e-03,-9.790634376130196159e+00
1.005403440580155294e+00,-8.213660824378608144e-05,-9.795086202799947017e+00
1.001698513096528353e+00,5.488806397169759474e-03,-9.794480054540734670e+00
9.988393165962387021e-01,1.259446995007168675e-02,-9.797181145887050135e+00
9.970733563813254374e-01,3.286494743660906340e-03,-9.800668605743256379e+00
1.004762838300820027e+00,-6.383570758862844828e-03,-9.791157702406914964e+00
1.007078434466033734e+00,-5.155139258919813096e-03,-9.798109231840255617e+00
1.000677158330218530e+00,-5.300249021786814039e-04,-9.802125588260338418e+00
1.004595397690783765e+00,-3.587161951711034368e-03,-9.800473208252588719e+00
9.933302018062449834e-01,-7.041655687070893198e-04,-9.799003411698729238e+00
1.004025984342676425e+00,4.218651884346768036e-03,-9.792348360663064355e+00
1.000283307850605929e+00,-1.411591050720272618e-03,-9.797385393590767322e+00
1.007216524406147506e+00,4.156041789583507159e-04,-9.795825465638777985e+00
9.919453329929792673e-01,-3.552744033171665976e-03,-9.796638154969640411e+00
1.002098217401227176e+00,7.529166041945112211e-04,-9.792825848304598679e+00
9.974589493553058794e-01,-7.940206230598082296e-03,-9.794608985187961636e+00
1.004978500665170138e+00,-1.008681650760281804e-03,-9.793095537207891610e+00
9.997700798603409433e-01,-7.539151166064546675e-03,-9.797207061447680942e+00
9.954343565832340923e-01,1.035410048942334710e-02,-9.795799983813655132e+00
1.004414741773421937e+00,5.239431545709334614e-03,-9.790088555618915223e+00
1.006915446302406592e+00,-2.312816615147591810e-03,-9.792602126412711883e+00
9.944966539911656023e-01,2.388592466039278007e-04,-9.792457428291617916e+00
9.981834685680278652e-01,9.740589958890166072e-03,-9.800288608031459958e+00
9.992861872316582961e-01,-5.241585972087093974e-03,-9.794593105775234676e+00
1.008400810354603383e+00,7.628112711377893701e-04,-9.789179301443242665e+00
1.005020309763563269e+00,-9.830765148117683039e-03,-9.805859441304944468e+00
1.010804393593422779e+00,-1.974424982968983784e-03,-9.795204800182041538e+00
1.000282794220138882e+00,4.887510671860988143e-03,-9.793561773218032229e+00
9.992037208792122760e-01,-6.527561027645810421e-03,-9.798998510233090542e+00
1.010614228532677572e+00,4.155071984971283119e-03,-9.800647943547334151e+00
9.992861182617054361e-01,1.110961738722971402e-03,-9.796335590275214500e+00
9.950286398885924699e-01,-7.414522407146201949e-03,-9.788655868895794754e+00
9.981679223882086172e-01,-7.760261335397056551e-03,-9.801878863589955415e+00
1.004147905604632518e+00,-6.983848847393140649e-04,-9.793539903250048084e+00
1.007600868497911195e+00,-7.311852823089954462e-03,-9.787693430585685306e+00
9.979389974596195589e-01,-4.797665741291280695e-05,-9.790464564106672540e+00
1.008216202672465700e+00,-8.653776317629159262e-04,-9.791483991705755230e+00
1.009987640488048344e+00,2.114886227658893756e-03,-9.791859436871723332e+00
9.971925058232717909e-01,-3.082599536583913689e-04,-9.799170650473779887e+00
1.008589104309173479e+00,2.010248972659410549e-03,-9.798577673475339367e+00
1.001413494884766830e+00,-2.157868751947615571e-03,-9.791464744771632311e+00
1.002241641358654789e+00,8.764532221972411163e-03,-9.795162806624373886e+00
1.000127248142719916e+00,5.633847915600875486e-03,-9.801597249137842027e+00
1.008722906086707338e+00,-4.792982904026252614e-03,-9.797078150241308236e+00
1.006939115354153369e+00,-1.528405985496398937e-03,-9.800512165539062792e+00
9.985575724435894474e-01,3.480558859463220127e-03,-9.799756435945875310e+00
1.002337713040876377e+00,8.731599431488660601e-04,-9.798640125586169702e+00
9.948018078898265282e-01,-3.786518895746985268e-03,-9.791660500092222108e+00
9.955996975103493796e-01,-5.519447118623691841e-03,-9.792256453648002790e+00
1.004336172956147966e+00,-6.307098301931112622e-03,-9.795566317989102600e+00
9.951582883531454593e-01,-4.430565688750220943e-03,-9.791805980245555929e+00
9.981051339833700853e-01,-3.358043314623788619e-03,-9.801435070437372943e+00
1.000832793839623092e+00,-5.975193401039259481e-04,-9.794833711431770951e+00
1.006350629659774620e+00,2.524137904343479958e-03,-9.801002613426833321e+00
9.988838797747119358e-01,-9.121680349367580071e-03,-9.792467010377821524e+00
9.995610611110058441e-01,-7.182873387921276690e-04,-9.798433467841135780e+00
1.000043514687893875e+00,7.485683882298447764e-03,-9.791774554221557736e+00
1.002671984369222891e+00,6.046559290353325546e-04,-9.800421593168106682e+00
9.963180274869628539e-01,3.167310346463088691e-03,-9.788290031742915787e+00
9.953133003271580348e-01,-2.655009677765350629e-03,-9.794266950973820940e+00
9.959485038819895220e-01,4.859760700515522620e-03,-9.795368101410931061e+00
9.952034719811363450e-01,7.674667732946243229e-03,-9.793061329945334847e+00
9.973086706813122371e-01,-2.757450883200723325e-03,-9.802556874230166528e+00
1.004505543132195866e+00,5.583131637811811036e-03,-9.806526163771998483e+00
9.886477159467146336e-01,6.028049302719697784e-04,-9.799196504770659288e+00
1.013258806975672499e+00,-1.413633810622700335e-03,-9.799230417702121443e+00
9.985407705401451173e-01,-2.412490453166241718e-03,-9.795194340580769321e+00
9.959309280802438602e-01,3.177916636559277759e-03,-9.791052073980212711e+00
1.008254742509963942e+00,-4.828369013953040002e-03,-9.796975890800712961e+00
1.002060106316502219e+00,-2.396606992656904501e-03,-9.787061706292348617e+00
1.004796376595833651e+00,1.691791302561579521e-03,-9.800894903434061334e+00
1.000757279356550455e+00,-9.991304687296035086e-04,-9.790638114395759928e+00
1.008523478563774889e+00,-1.132617159589611316e-03,-9.797201902880297908e+00
1.000413154971505625e+00,1.673780623399202631e-03,-9.798831855866813711e+00
1.002469372153546923e+00,-4.906021721077870150e-03,-9.791488804203066110e+00
9.971080803198687503e-01,5.227088230703922506e-03,-9.792532086411480208e+00
9.949179705461715928e-01,-4.404339237935215971e-03,-9.794909035377376227e+00
9.962902552950521073e-01,-2.595897651311761690e-03,-9.795808751609440534e+00
9.962220771783024675e-01,-4.518713410755826644e-03,-9.803663291551282910e+00
1.004345628177825134e+00,-5.442109940616127184e-03,-9.792859467243591354e+00
9.984906882928142879e-01,-3.239167523163347378e-05,-9.801219502331180777e+00
9.952612518072346814e-01,1.960143716336683242e-03,-9.801096854963164517e+00
9.921247118215433813e-01,-1.642375794615512016e-03,-9.791203587339978753e+00
9.906991077595511674e-01,2.063578915889795965e-04,-9.798816770664581455e+00
9.948172469893592496e-01,-1.039983357753033154e-02,-9.801144074789137406e+00
1.005496906296262649e+00,4.490035873699315012e-03,-9.797012185947250984e+00
9.867990422133127160e-01,4.858502957248982991e-03,-9.793223387754533604e+00
9.996799320316391846e-01,1.406921483329611356e-03,-9.798308186938388786e+00
9.964031353997016005e-01,-8.244399204756900799e-04,-9.795239629091547329e+00
9.955387431047076907e-01,-6.677653390392233705e-03,-9.796821352190368870e+00
9.974820783221173270e-01,-4.502923725707389836e-03,-9.797525968015422748e+00
1.009303242626616637e+00,1.948011061645870193e-03,-9.789052424996755875e+00
9.956325554256341137e-01,-4.460280364159652580e-03,-9.797262061201998051e+00
9.951691696567072087e-01,1.914405869322413417e-03,-9.792422296388473058e+00
1.006039508155553541e+00,1.018356140248810951e-02,-9.791106090539416940e+00
9.991899431566318990e-01,2.071559237485656301e-03,-9.800005843180581877e+00
1.006014951272136360e+00,-7.126265205144449721e-03,-9.778652982720009490e+00
9.956173999952219189e-01,4.997017011623658932e-03,-9.798985877589680982e+00
9.998853512868262072e-01,-1.184133562544060526e-02,-9.793652485744354763e+00
1.004466061038834512e+00,6.968641973878233727e-04,-9.788870715484019769e+00
1.005741750466632167e+00,-3.660314222182162332e-04,-9.799810578359357649e+00
9.882990870920591586e-01,-3.325199989016850224e-03,-9.802214207843309879e+00
9.995879379446253044e-01,-1.874437312666645027e-03,-9.800149312231155818e+00
9.994374916954704702e-01,-2.305787049028322749e-03,-9.800904330424637934e+00
9.963235457089336666e-01,-9.082216120739462425e-03,-9.790987264799587919e+00
1.001766781998122635e+00,-2.896501019332963509e-04,-9.799633592095377210e+00
1.001469358491314798e+00,-6.482832811486349584e-05,-9.788813724746859180e+00
9.988989711956793860e-01,5.137392784370879185e-03,-9.797733293413026345e+00
1.007549473228821713e+00,3.903871420811409754e-03,-9.792801749794637800e+00
9.895579444117176271e-01,-3.297682828217981740e-03,-9.791699304172329477e+00
9.933751549090186206e-01,1.145164875826875761e-04,-9.793174076512245918e+00
9.948791315947296265e-01,8.071945039643663861e-03,-9.793645067335003063e+00
9.900606808710602502e-01,-3.228653182638317395e-03,-9.795256856278601987e+00
9.985673719751566590e-01,-2.717270749373342387e-03,-9.789870966768415173e+00
1.003583481896141327e+00,2.398722686056458005e-03,-9.792146326687824143e+00
1.000740086617893265e+00,-5.535606313156019335e-04,-9.793612008692367255e+00
9.941839909163293632e-01,2.227545278167579728e-03,-9.801686619142243373e+00
9.949214686420615461e-01,1.467416444619752723e-03,-9.786768633058798628e+00
9.886588918525837100e-01,-1.554647660586807797e-02,-9.801628585109989800e+00
9.994538474259085925e-01,-3.166182186087925909e-04,-9.787442688316501105e+00
9.988730419737488209e-01,-4.712092863990109464e-04,-9.805511210777813957e+00
1.001110566033483806e+00,1.028946929629958500e-03,-9.793555623234967200e+00
9.969207942082526364e-01,4.193365849429998675e-03,-9.791064032429870778e+00
1.005181798919717817e+00,9.202576082774055477e-03,-9.789134482275104077e+00
1.011527987580056465e+00,1.619652556044250645e-03,-9.787499653080979911e+00
9.931254434975764767e-01,-4.334993255861003050e-03,-9.796277578995260527e+00
9.928216716844150413e-01,1.981748035691343734e-03,-9.789688902168636631e+00
1.004291594075057192e+00,-5.253758739661287596e-04,-9.793252977429204975e+00
1.004681452387382157e+00,1.209769705832221525e-03,-9.794950037672581544e+00
9.954854388754730277e-01,1.176423670934857550e-02,-9.796572586933583793e+00
9.954216232292125710e-01,6.512064627836101384e-04,-9.805252626194773669e+00
1.008247117248222580e+00,2.557519935230886943e-03,-9.797456726597502552e+00
9.988054472650604865e-01,-5.561687880631866528e-04,-9.789720572280398159e+00
1.003059365148849080e+00,-1.395499083144293882e-03,-9.789071201013605616e+00
1.003777654618974724e+00,2.311238251698483743e-04,-9.791032539178202043e+00
1.003456892516280119e+00,7.996656687273754173e-04,-9.790407037282960800e+00
9.979525608295249928e-01,3.555514249818233878e-03,-9.793336960383783207e+00
9.958996163317160866e-01,-7.357481709576276993e-03,-9.786948950513441048e+00
1.001920055218663563e+00,-1.631343174353718298e-02,-9.785607417939191421e+00
9.929596147055618216e-01,-7.210095699134613074e-05,-9.791063362295453487e+00
9.983156525840917173e-01,-5.996322613684090634e-03,-9.794482027474884944e+00
1.012321290488084724e+00,5.246576730039456161e-03,-9.798954846104273031e+00
1.000930946492267548e+00,-1.352792535205627822e-04,-9.793934751421302209e+00
1.000221610321060828e+00,8.289740061751944139e-03,-9.807459209200285244e+00
1.005384768409551599e+00,-4.304082865093216553e-03,-9.791397191333469863e+00
9.909198628568243183e-01,1.591257780285176837e-02,-9.794221536860185040e+00
1.000272639272037800e+00,7.364002528254093814e-03,-9.789576269588648572e+00
1.007330921918474953e+00,-1.939824089742527794e-03,-9.791668203854099417e+00
9.875101771663031824e-01,-1.029485943760756651e-04,-9.797622973472751795e+00
1.008047115170632058e+00,-1.350286358600445583e-03,-9.789030470189043598e+00
9.989742026008233688e-01,6.553658943484370024e-03,-9.795487377337405377e+00
1.000136109912949323e+00,-2.285677796436141277e-03,-9.795763612309441370e+00
9.945195853754201787e-01,4.833526486933586649e-03,-9.787641379229894412e+00
1.005193975138810591e+00,3.932314528430804444e-03,-9.797462746335826367e+00
1.006355923431569321e+00,2.975134606614837727e-03,-9.798818902777775008e+00
1.004049808992230286e+00,8.618284324569831225e-04,-9.794365852145922702e+00
9.962307696085209718e-01,7.109973652857521633e-04,-9.797446743535045854e+00
9.996109857726125369e-01,-5.173270928044250601e-03,-9.797130637382739593e+00
9.964729169430639466e-01,-8.940585269166148596e-03,-9.790799603890494751e+00
9.928302251903150522e-01,8.382061082436836549e-03,-9.804451107320353742e+00
9.900522240307059185e-01,5.013404690304502746e-03,-9.782415053296775298e+00
1.000980599680710181e+00,2.007733524472697303e-03,-9.796674274280153583e+00
9.957173589967989180e-01,3.882775946664183443e-03,-9.787550392714479131e+00
1.002020512654243412e+00,3.777891884122693261e-03,-9.788767114184290463e+00
1.006447055709317473e+00,-2.132833305580450315e-04,-9.795908775282377690e+00
1.000415835379330876e+00,-1.775334471875588836e-04,-9.789483696090362841e+00
1.000262928107542582e+00,6.732018489603891487e-03,-9.788165552810024650e+00
9.977579868556730736e-01,-7.866134292193923891e-03,-9.793443460029259029e+00
9.984607151454207852e-01,2.779893005207453686e-03,-9.792083483582009862e+00
9.999911905143596957e-01,-7.191758266099966199e-03,-9.799620106424203669e+00
9.988696594365626957e-01,-5.533052996176924480e-04,-9.793582891654905254e+00
9.976661447423753604e-01,-3.452544000197693957e-03,-9.796316687263628253e+00
9.984244036853899829e-01,7.070696989549768094e-03,-9.794883212787910409e+00
1.005487292832270008e+00,5.646975368960502166e-03,-9.796468381193639274e+00
1.007904535464377638e+00,-1.476058775219276286e-03,-9.797601742736695485e+00
1.005001363873953890e+00,-2.945764897323894464e-03,-9.790430063430136443e+00
1.003949764832953395e+00,7.244188813176735513e-03,-9.798599612254315971e+00
1.000879239858577963e+00,1.849434314184638870e-03,-9.796201954517615107e+00
1.000587837414235404e+00,2.584397800580368054e-03,-9.789764155488050790e+00
1.000424585236020958e+00,-2.248315245248205287e-03,-9.794155282888025837e+00
9.928590519444799867e-01,-4.137609586567109546e-03,-9.794716145614202674e+00
9.950952772012644498e-01,-7.318037463881657372e-03,-9.789525440159341230e+00
1.012543910679450043e+00,-5.232703673671203898e-03,-9.788625042568606105e+00
1.002722522811373418e+00,2.074452580911261869e-03,-9.794761568795689044e+00
1.001344824143712842e+00,5.696564157447569186e-03,-9.792636676646917948e+00
1.002066480088171563e+00,5.129760612148891175e-03,-9.800062839275772930e+00
9.960296341763953398e-01,-1.030066807768613424e-02,-9.796952954735566266e+00
9.969306718906182363e-01,3.207772262866786291e-03,-9.798362604539304854e+00
9.991955139445585221e-01,-3.269480694630323052e-04,-9.786258596637166463e+00
9.918543793315178769e-01,-5.767055991793773942e-04,-9.800051038977890983e+00
9.956252980545921005e-01,-2.668647450194247886e-03,-9.793071666869161973e+00
9.994440234158266101e-01,-6.837350003215706198e-03,-9.785937353222324830e+00
9.970022214468006183e-01,5.168925709551932396e-03,-9.795166224519288534e+00
9.959392967947131581e-01,-3.143877335509581705e-03,-9.795663643573510271e+00
9.904866615278415942e-01,-3.580360425788414389e-03,-9.801284217190890047e+00
1.001162701114530318e+00,1.015692269490541672e-02,-9.798944073713885317e+00
1.004176859986517512e+00,1.521741319243255053e-04,-9.796105407370426121e+00
1.001854593968055651e+00,4.935640173651838387e-03,-9.794252242200068181e+00
1.004347095200609941e+00,3.442141261151636356e-04,-9.792748597596341753e+00
1.000586465671045477e+00,6.737136043655313211e-03,-9.796067871272054361e+00
9.955674025116161285e-01,5.721653484456318967e-03,-9.800129406278712096e+00
9.991029298893592259e-01,-9.057935210378764354e-03,-9.794576125495927599e+00
1.010620239899159722e+00,-1.569163736760824813e-03,-9.789782793518273962e+00
1.006742718966640915e+00,7.756452381387208108e-04,-9.801893337499606673e+00
9.989222168413377512e-01,3.284716658797725165e-03,-9.794332348634943841e+00
9.965733452773928303e-01,1.718733511450897975e-03,-9.794815122556535414e+00
9.937302107267568241e-01,-3.939709491409000737e-03,-9.793312704067650643e+00
9.970758653531781590e-01,-8.845501252988136054e-03,-9.793643497769489059e+00
1.000782165427688275e+00,-1.919322850407190629e-03,-9.788681750911473856e+00
1.006668820202506920e+00,-2.996309810721952196e-03,-9.791950936939514349e+00
1.007003598946020206e+00,2.101319934750313975e-03,-9.793437559671319903e+00
9.873768390644032111e-01,1.950234111795363348e-04,-9.796976199964353427e+00
9.905173257974537737e-01,-4.241698294322028898e-03,-9.784445982860502156e+00
1.002620271635314975e+00,-2.739542989468517296e-04,-9.797710423431592375e+00
1.001725208360805919e+00,-4.508178725779603789e-03,-9.792118169134953476e+00
9.963634853051881457e-01,-8.163742054006561250e-03,-9.791110909556469011e+00
9.974484228877282810e-01,5.018415234085752547e-03,-9.794239112755859011e+00
1.001570057387314083e+00,4.516539997875297120e-03,-9.789332729937815003e+00
9.989735591938634363e-01,-4.523833081888426269e-03,-9.787742298187241730e+00
9.969211100146958549e-01,5.012522770159654091e-03,-9.792143187909511326e+00
1.004998891666538663e+00,1.119865287610242099e-03,-9.799806936320820228e+00
9.989766458373344760e-01,-9.954554446500361864e-03,-9.796445479968570069e+00
9.995277514066434055e-01,-6.902143978784202900e-04,-9.795170554482327319e+00
9.913051476111514049e-01,-6.068125695214982837e-05,-9.796529879828788978e+00
9.964389916891805976e-01,5.142208597426995570e-03,-9.804164633530531248e+00
9.976911147702867133e-01,1.648479989936769497e-03,-9.791747623810922008e+00
1.006090290647328134e+00,4.256976911787992320e-03,-9.791062315513677561e+00
1.000738099275183757e+00,-1.936682779850292966e-03,-9.793156763738052106e+00
1.000701106965904641e+00,3.945368579786235502e-04,-9.799292847020286246e+00
1.000730563736510703e+00,-2.296667330835493561e-04,-9.803776465441080390e+00
9.981034806144714056e-01,3.078932386840171377e-03,-9.797608668983135871e+00
1.000097030854478986e+00,6.363980447976708230e-04,-9.796476448084014521e+00
9.980472239039380744e-01,5.883613153896982174e-03,-9.803596144302749948e+00
9.919916905525250073e-01,-5.517725529933785455e-03,-9.791128407657852861e+00
1.004655725002287836e+00,5.127564056422695762e-03,-9.791556261673248329e+00
1.005203504868815045e+00,-2.182238228335101234e-04,-9.789638997599666936e+00
9.990021320997647392e-01,-3.055024386653991744e-04,-9.790109692193588842e+00
1.001180340537860980e+00,6.338256647967114438e-03,-9.802452566616612017e+00
1.006153699729098294e+00,-3.104820459082400889e-03,-9.795251282810710336e+00
1.002623028841655772e+00,4.930735076417499391e-03,-9.794042157066138898e+00
9.981741151116200195e-01,-3.190634741119871011e-04,-9.795720857751781807e+00
1.003881428863840686e+00,-2.540509504364470584e-03,-9.801084678645905157e+00
1.003870529606196271e+00,5.329776662382430634e-03,-9.793625625258897571e+00
1.009756993015502147e+00,1.205384340777704549e-03,-9.787417887043215359e+00
1.002397203158968964e+00,4.976462111530573044e-03,-9.797814452958455433e+00
9.901542881309639554e-01,-3.454251830186989662e-03,-9.799867773923702785e+00
1.000504153320091127e+00,2.518694701102834350e-03,-9.804639061752888907e+00
9.925077070092193088e-01,1.046870438621419876e-03,-9.797184549634817330e+00
1.000031504789996806e+00,-3.444533365259882726e-03,-9.798952626717111869e+00
1.003646148741892841e+00,-6.316744143056402883e-04,-9.795494886509848342e+00
1.000954856037562957e+00,3.785878377931264742e-03,-9.801302128694272753e+00
9.984561605154068653e-01,2.645953939587697510e-03,-9.800667907914544230e+00
1.003008135055985628e+00,-2.141021156984967456e-03,-9.792764769141607317e+00
9.942360551198063945e-01,1.502224599983168537e-03,-9.799891478239629805e+00
1.004012789368192271e+00,-4.853179703480490007e-03,-9.791901950552187373e+00
1.005641098215512619e+00,-7.027122970226364757e-03,-9.792396583950196742e+00
9.924882497308330498e-01,-8.863458663200029022e-04,-9.797393461540401915e+00
9.931282615511493050e-01,-5.760076796646041060e-03,-9.795746300537620854e+00
1.003964390318841104e+00,-3.161656503132771225e-03,-9.799405122080033337e+00
9.981096685775173727e-01,4.807207985265100382e-03,-9.804657484661641220e+00
9.993294547754811852e-01,1.724110096800481962e-03,-9.791726385607521621e+00
1.005595227633782507e+00,3.305535777714004378e-03,-9.794189276269216649e+00
9.987292770836790901e-01,-2.509431351289926980e-05,-9.792968814433772096e+00
1.003044027773544178e+00,3.468943472189858334e-03,-9.779797126631851967e+00
9.990059677066137622e-01,-3.894356887595880334e-03,-9.801853220931542765e+00
9.963734661006727888e-01,-4.279425019381748706e-03,-9.799047870263100535e+00
9.971257637074172342e-01,7.584292399385264571e-05,-9.797741599420561442e+00
9.995182377983412580e-01,8.510913249687463572e-03,-9.795312118574670990e+00
1.001409342384448564e+00,7.594878191014549015e-03,-9.790260604899367891e+00
9.956879851421325256e-01,2.325857259222370750e-03,-9.792987132818730345e+00
9.963344526006578938e-01,-7.742442770598753632e-04,-9.788055061727510164e+00
9.999674310605813909e-01,-2.587095675185467300e-04,-9.792126087093240727e+00
9.955785475185163769e-01,-1.817529051616599903e-03,-9.793917781753778584e+00
9.997906435326144869e-01,7.751006937569057936e-04,-9.789461374489373924e+00
1.003610758610840037e+00,-7.440947569570556790e-04,-9.786544603341550186e+00
1.003231043825077773e+00,5.368319906304250266e-03,-9.800016199780342774e+00
1.001612962876117896e+00,-2.333021800312534352e-03,-9.779242383485161838e+00
1.005666818987487776e+00,1.204171039425846242e-03,-9.803385559673840177e+00
9.965608180991636367e-01,-5.730725274168615643e-03,-9.793986690378662985e+00
9.993327332459219781e-01,-1.877337501733633996e-03,-9.795478022423930398e+00
9.933514500358536781e-01,-4.717757317394472190e-03,-9.795658797180529120e+00
9.989688202912668791e-01,3.726587831740731799e-03,-9.791660403894931974e+00
1.008560759058056533e+00,2.291435669409692694e-03,-9.794881076698800371e+00
9.991874518866833421e-01,3.071477069127132378e-03,-9.794721354634837951e+00
9.956501602284129060e-01,-7.977644584751661036e-04,-9.796798457508268498e+00
1.000166881040039701e+00,-1.819954431078588174e-04,-9.798528669237345667e+00
9.992445458482507314e-01,-6.934578168119964400e-03,-9.793654454257062270e+00
1.005515870774406739e+00,-3.267720797184590908e-03,-9.790575912891403831e+00
9.972317648570925286e-01,-5.978247135436049430e-03,-9.794332119240051426e+00
9.966009804761627455e-01,-7.075267499646664855e-03,-9.794964432538153076e+00
9.946230200595802540e-01,-2.483655003009273363e-03,-9.797652366625014153e+00
